"Time (s)","Acceleration x (m/s^2)","Acceleration y (m/s^2)","Acceleration z (m/s^2)"
1.708736900E-2,-1.485901475E-1,7.698106766E-1,9.775525093E0
1.958272900E-2,-1.375917792E-1,8.067711592E-1,9.766996384E0
2.207809000E-2,-1.050456017E-1,8.518868685E-1,9.746496201E0
2.457345100E-2,-9.419687092E-2,8.708160520E-1,9.723751068E0
2.706881100E-2,-9.988310188E-2,9.028384686E-1,9.681777954E0
2.952994800E-2,-1.284638792E-1,9.135375619E-1,9.650578499E0
3.202539100E-2,-1.009305641E-1,9.262567759E-1,9.602843285E0
3.452006000E-2,-9.487023950E-2,9.427917600E-1,9.576432228E0
3.701509600E-2,-9.232640266E-2,9.569324851E-1,9.544111252E0
3.950980700E-2,-1.387140602E-1,9.807248712E-1,9.493758202E0
4.200423200E-2,-1.266682297E-1,9.937433600E-1,9.479393005E0
4.449951200E-2,-8.970774710E-2,9.922469854E-1,9.459191322E0
4.699446700E-2,-6.217442453E-2,9.992051125E-1,9.432855606E0
4.948982800E-2,-5.618892238E-2,1.005115747E0,9.434052467E0
5.198274700E-2,-1.073649824E-1,1.024344206E0,9.414749146E0
5.447928900E-2,-1.086369008E-1,1.018283963E0,9.400459290E0
5.697652200E-2,-1.301098913E-1,1.014692664E0,9.388487816E0
5.946923800E-2,-1.253963113E-1,1.008707047E0,9.394548416E0
6.196423400E-2,-1.040729582E-1,9.860370159E-1,9.404199600E0
6.445943300E-2,-8.641571552E-2,9.503484368E-1,9.445051193E0
6.695581000E-2,-8.200141042E-2,8.958055377E-1,9.508646965E0
6.944901500E-2,-9.524433315E-2,8.857797980E-1,9.623344421E0
7.194942300E-2,-6.913257390E-2,8.694692850E-1,9.714248657E0
7.443908800E-2,-6.194996834E-2,8.725368977E-1,9.828871727E0
7.692350300E-2,-2.027589642E-2,8.572738171E-1,9.895909309E0
7.943802900E-2,7.481880311E-5,8.717138767E-1,9.924564362E0
8.193269900E-2,5.147533491E-2,8.812906742E-1,9.952097893E0
8.442781600E-2,6.105214357E-2,8.786720037E-1,9.925836563E0
8.692264800E-2,6.943184882E-2,8.892962933E-1,9.903091431E0
8.941756300E-2,5.858312175E-2,8.652046323E-1,9.864933968E0
9.191259800E-2,5.386953801E-2,8.818144202E-1,9.842188835E0
9.440791900E-2,5.506663769E-2,8.830863237E-1,9.856479645E0
9.690682000E-2,4.915595427E-2,8.888474107E-1,9.815853119E0
9.939742000E-2,1.354220323E-2,9.139117002E-1,9.800141335E0
1.018926600E-1,8.230068488E-4,9.759364724E-1,9.768792152E0
1.043779300E-1,-2.296937257E-2,9.878326654E-1,9.756746292E0
1.068988450E-1,-5.125087872E-2,1.040280581E0,9.720608711E0
1.094053960E-1,-7.863456011E-2,1.046266198E0,9.701379776E0
1.118692220E-1,-9.636662155E-2,1.063923359E0,9.653495789E0
1.143838310E-1,-1.154454127E-1,1.072078586E0,9.610475540E0
1.168787030E-1,-1.476923227E-1,1.069459915E0,9.549497604E0
1.193727220E-1,-1.441010088E-1,1.067739129E0,9.459939957E0
1.218900560E-1,-1.788917631E-1,1.042450428E0,9.412205696E0
1.243374840E-1,-1.981201917E-1,1.016039371E0,9.374048233E0
1.268585210E-1,-1.815104187E-1,1.002646804E0,9.351452827E0
1.293532720E-1,-1.542015523E-1,9.856629372E-1,9.321749687E0
1.318476560E-1,-1.303343624E-1,9.820716381E-1,9.334918022E0
1.343169760E-1,-1.495627910E-1,9.594763517E-1,9.338583946E0
1.368121750E-1,-1.176151559E-1,9.273042679E-1,9.361477852E0
1.393324390E-1,-1.164928749E-1,9.117419124E-1,9.366341591E0
1.418279620E-1,-9.980828315E-2,9.094973803E-1,9.395071983E0
1.443221850E-1,-8.185177296E-2,9.167547822E-1,9.422530174E0
1.467940680E-1,-7.721300423E-2,9.050830603E-1,9.460837364E0
1.492903650E-1,-4.982932284E-2,8.859294653E-1,9.480066299E0
1.518075360E-1,-3.134907782E-2,8.010849357E-1,9.476923943E0
1.542763270E-1,1.928080618E-1,5.993734598E-1,9.430460930E0
1.567719730E-1,2.114379406E-1,7.068880796E-1,9.641375542E0
1.592663170E-1,-7.968202233E-2,7.285106778E-1,9.901221275E0
1.617631440E-1,-2.225859463E-1,7.745242715E-1,1.013256073E1
1.642817380E-1,-1.030254886E-1,8.133552074E-1,1.029379559E1
1.667773030E-1,7.526771724E-2,8.730605841E-1,1.038574791E1
1.692714850E-1,2.341828495E-1,9.052327275E-1,1.046109009E1
1.717411710E-1,2.832639813E-1,9.229647517E-1,1.046468163E1
1.742369390E-1,2.807949781E-1,9.156324863E-1,1.042644882E1
1.767570400E-1,2.564788461E-1,8.459762335E-1,1.035746574E1
1.792269700E-1,2.284218073E-1,7.607575655E-1,1.026947975E1
1.817212320E-1,2.265513390E-1,6.563105583E-1,1.018276405E1
1.842210290E-1,2.677016854E-1,5.670517087E-1,1.009387970E1
1.867107350E-1,2.816928029E-1,5.116109848E-1,1.001891136E1
1.892310790E-1,2.825157940E-1,4.611082971E-1,9.953444481E0
1.917267260E-1,2.586486042E-1,4.549731314E-1,9.920001030E0
1.942207850E-1,2.145055085E-1,4.598363638E-1,9.904363632E0
1.966949870E-1,1.645265520E-1,4.861725867E-1,9.894637108E0
1.991855070E-1,1.228524745E-1,5.018097162E-1,9.882516861E0
2.017059740E-1,6.703764945E-2,5.424363017E-1,9.854758263E0
2.042013760E-1,1.608604193E-2,5.913678408E-1,9.829319954E0
2.066955570E-1,-7.481880486E-3,6.354361176E-1,9.792060852E0
2.091690680E-1,-3.217208385E-2,6.857143044E-1,9.791761398E0
2.116604010E-1,-4.653729498E-2,6.879588962E-1,9.759513855E0
2.141807860E-1,-4.982932284E-2,7.235726714E-1,9.718737602E0
2.166757000E-1,-5.790975317E-2,7.639747858E-1,9.686266899E0
2.191464450E-1,-9.240122139E-2,7.817816734E-1,9.643095970E0
2.216472980E-1,-9.127894044E-2,7.671920061E-1,9.600150108E0
2.241652840E-1,-1.076642573E-1,8.184428811E-1,9.581969261E0
2.266551120E-1,-1.173158810E-1,7.992892861E-1,9.566556931E0
2.291508380E-1,-1.089361757E-1,8.041524887E-1,9.589226723E0
2.316449790E-1,-8.985738456E-2,7.992892861E-1,9.579724312E0
2.341305350E-1,-1.148468629E-1,8.150760531E-1,9.610625267E0
2.366097020E-1,-1.064671576E-1,8.150760531E-1,9.615488052E0
2.391299650E-1,-1.063175201E-1,8.376713395E-1,9.604564667E0
2.416254890E-1,-9.180267155E-2,8.641571999E-1,9.637933731E0
2.440943610E-1,-7.975684106E-2,8.857797980E-1,9.674894333E0
2.466137290E-1,-9.277531505E-2,8.981249332E-1,9.727342606E0
2.491035980E-1,-9.748890251E-2,9.139865041E-1,9.782184601E0
2.516044520E-1,-8.903437853E-2,9.214683771E-1,9.839495659E0
2.541000570E-1,-9.487023950E-2,9.454103708E-1,9.846603394E0
2.565941170E-1,-1.092354506E-1,9.359832406E-1,9.860894203E0
2.590819100E-1,-1.128267571E-1,9.311199784E-1,9.847800255E0
2.615590830E-1,-8.065467328E-2,9.296236038E-1,9.809642792E0
2.640790610E-1,-6.995557994E-2,9.172785282E-1,9.718737602E0
2.665747490E-1,-9.045593441E-2,8.881739974E-1,9.632845879E0
2.690688490E-1,-9.531915188E-2,8.758289218E-1,9.561244011E0
2.715396330E-1,-1.192611754E-1,8.624363542E-1,9.508721352E0
2.740335290E-1,-1.325041056E-1,8.442553878E-1,9.453879356E0
2.765380460E-1,-1.422305405E-1,8.166472316E-1,9.426495552E0
2.790355640E-1,-1.674444824E-1,7.986907363E-1,9.407417297E0
2.815183110E-1,-1.854758114E-1,7.831284404E-1,9.389534950E0
2.840158700E-1,-1.476923227E-1,7.232733965E-1,9.387515068E0
2.865092780E-1,-4.444237053E-2,6.331167221E-1,9.347487450E0
2.890287280E-1,-3.516483679E-2,5.890484452E-1,9.372850418E0
2.915235200E-1,-7.564181089E-2,6.083517075E-1,9.378611565E0
2.940181490E-1,-1.148468629E-1,6.311714053E-1,9.385644913E0
2.964878750E-1,-1.456722170E-1,6.682815552E-1,9.375843048E0
2.990146900E-1,-1.740285307E-1,7.066636086E-1,9.387590408E0
3.015021580E-1,-1.833060682E-1,7.438485622E-1,9.408838272E0
3.039987390E-1,-1.711106002E-1,7.859715223E-1,9.473182678E0
3.064676520E-1,-1.232265681E-1,8.112602830E-1,9.528100014E0
3.089630140E-1,-5.289689451E-2,7.941267490E-1,9.504382133E0
3.114831950E-1,4.055179283E-2,8.489689827E-1,9.538873672E0
3.139804700E-1,5.858312175E-2,8.684966564E-1,9.610475540E0
3.164732270E-1,5.731120333E-2,8.532336354E-1,9.657162666E0
3.189422200E-1,3.097498417E-2,8.470984697E-1,9.618929863E0
3.214626880E-1,4.047697410E-2,8.373720646E-1,9.595062256E0
3.239581720E-1,8.379706182E-3,8.488941193E-1,9.500640869E0
3.264283870E-1,2.379237860E-2,8.342296481E-1,9.454104424E0
3.289470630E-1,-1.197100803E-2,8.412626386E-1,9.416994095E0
3.314056000E-1,8.304887451E-3,8.435820341E-1,9.418265343E0
3.339372980E-1,-3.815758973E-3,8.081178665E-1,9.468544006E0
3.364327810E-1,1.735796221E-2,7.725041509E-1,9.522488594E0
3.389271250E-1,2.192190848E-2,7.417536378E-1,9.572841644E0
3.414222020E-1,5.177461356E-2,7.393594384E-1,9.593192101E0
3.439168300E-1,5.162497237E-2,7.180360556E-1,9.637559891E0
3.464120290E-1,5.626374111E-2,7.074117661E-1,9.661501884E0
3.489073090E-1,5.499181896E-2,6.970119476E-1,9.711779594E0
3.513763840E-1,3.119944036E-2,7.022492886E-1,9.782184601E0
3.538975020E-1,3.606266156E-2,7.208043337E-1,9.894337654E0
3.563776460E-1,3.621229902E-2,7.418284416E-1,1.001015759E1
3.588867200E-1,3.621229902E-2,7.481132150E-1,1.006268024E1
3.613820810E-1,1.821837872E-1,7.785644531E-1,9.442806244E0
3.638616550E-1,2.814683318E-1,8.120833039E-1,9.304166794E0
3.663715830E-1,2.562544048E-1,7.887398005E-1,9.380706787E0
3.688197840E-1,1.940051615E-1,7.711573839E-1,9.606510162E0
3.713616550E-1,1.705868728E-2,7.379378676E-1,9.950377464E0
3.738568130E-1,-1.109562814E-1,6.947674155E-1,1.024665928E1
3.763512380E-1,-2.484732419E-1,6.631938815E-1,1.048435879E1
3.788466400E-1,-3.381809890E-1,6.395511031E-1,1.067784023E1
3.813306490E-1,-3.826233447E-1,6.081272364E-1,1.079971981E1
3.838361410E-1,-3.958662748E-1,5.884498954E-1,1.088942814E1
3.863315440E-1,-4.008043408E-1,5.645078421E-1,1.088119793E1
3.888258470E-1,-2.962076366E-1,5.034556985E-1,1.071794319E1
3.913215350E-1,-1.425298154E-1,4.516063035E-1,1.051900005E1
3.937764490E-1,-1.159691438E-2,3.960159123E-1,1.027696133E1
3.963105480E-1,8.701426536E-2,3.280056417E-1,1.014722538E1
3.988063160E-1,1.236006618E-1,2.688239515E-1,1.005557251E1
4.013005780E-1,1.127519384E-1,2.480243295E-1,9.966089249E0
4.037956550E-1,5.768529698E-2,2.242319584E-1,9.955389977E0
4.062595230E-1,2.169745229E-2,1.988683790E-1,9.894487381E0
4.087853200E-1,-3.097498417E-2,1.726817936E-1,9.874286652E0
4.112808850E-1,-6.202478707E-2,1.776198447E-1,9.889698982E0
4.137496760E-1,-7.638999820E-2,1.681926697E-1,9.900472641E0
4.162701010E-1,-3.658639640E-2,5.237316340E-2,9.720758438E0
4.187647710E-1,1.732803434E-1,2.349310368E-2,9.801262856E0
4.212600520E-1,1.351975799E-1,4.728548229E-2,9.971850395E0
4.237546810E-1,5.087678786E-3,4.339490458E-2,1.002773952E1
4.262510990E-1,-8.806172758E-2,3.576338664E-2,1.010173512E1
4.287456880E-1,-1.348234862E-1,8.604162373E-3,1.012807178E1
4.312258720E-1,-1.622071713E-1,2.184708975E-2,1.012440586E1
4.337097990E-1,-1.788169444E-1,2.888005786E-2,1.009208393E1
4.362043870E-1,-1.836053431E-1,2.626140043E-2,1.005863953E1
4.387246110E-1,-1.574187577E-1,2.229600400E-2,1.000372314E1
4.412199310E-1,-1.717091501E-1,2.087444626E-2,9.966687202E0
4.437143160E-1,-1.336263865E-1,5.162497517E-3,9.952471733E0
4.462100030E-1,-1.325789243E-1,-1.990180090E-2,9.952621460E0
4.487039810E-1,-1.375169605E-1,-3.935468942E-2,9.895384789E0
4.511931980E-1,-1.197100878E-1,-5.626374111E-2,9.877578735E0
4.536942150E-1,-1.378162354E-1,-8.731354028E-2,9.868151665E0
4.561895360E-1,-1.331774741E-1,-1.050456017E-1,9.893290520E0
4.586586110E-1,-1.201590002E-1,-1.242740303E-1,9.886257172E0
4.611788340E-1,-1.511339843E-1,-1.075894386E-1,9.858649254E0
4.636610120E-1,-1.785176694E-1,-9.696517140E-2,9.823933601E0
4.661433520E-1,-1.568202078E-1,-7.668927312E-2,9.835754395E0
4.686642670E-1,-1.101332754E-1,-4.938041046E-2,9.835754395E0
4.711589370E-1,-6.576573104E-2,-2.431611158E-2,9.857152939E0
4.736534430E-1,-1.803133078E-2,-1.862988248E-2,9.834557533E0
4.761410330E-1,9.060557187E-2,-2.042553388E-2,9.783307076E0
4.786178810E-1,1.815104187E-1,-1.346738427E-3,9.632845879E0
4.811386740E-1,2.974047363E-1,1.750759967E-2,9.453729630E0
4.836222340E-1,3.618237376E-1,8.230068721E-3,9.333271980E0
4.861282160E-1,3.939958215E-1,2.917933278E-3,9.258078575E0
4.886230080E-1,3.916016221E-1,-5.761047825E-3,9.207949638E0
4.911284600E-1,4.225017726E-1,-2.513911761E-2,9.177049637E0
4.936134450E-1,3.770119548E-1,-4.272153601E-2,9.206902504E0
4.960828060E-1,3.698293567E-1,-4.137479886E-2,9.234360695E0
4.986028650E-1,3.470844328E-1,-5.192425102E-2,9.253514290E0
5.010976570E-1,3.995324075E-1,-6.097732484E-2,9.362300873E0
5.035673440E-1,4.317793250E-1,-6.015431881E-2,9.499669075E0
5.060878910E-1,4.698620737E-1,-7.242459804E-2,9.677737236E0
5.085833340E-1,5.269488096E-1,-9.292495251E-2,9.866654396E0
5.110763770E-1,5.603179932E-1,-1.002571955E-1,1.006627178E1
5.135722670E-1,6.046107411E-1,-8.043020964E-2,1.020954895E1
5.160491140E-1,6.498761177E-1,-8.342296630E-2,1.032911015E1
5.185623390E-1,6.689549088E-1,-8.304887265E-2,1.039599800E1
5.210577820E-1,6.916249990E-1,-8.626607805E-2,1.047493172E1
5.235522880E-1,6.691793799E-1,-5.484218150E-2,1.052491093E1
5.260505790E-1,6.322188973E-1,-4.122516140E-2,1.058573818E1
5.285195740E-1,5.871031284E-1,-9.950900450E-3,1.059980392E1
5.310373950E-1,5.824643970E-1,1.526303589E-2,1.061641407E1
5.335323910E-1,5.959317684E-1,6.165069342E-2,1.059591389E1
5.360267760E-1,5.651063919E-1,9.135375917E-2,1.055147171E1
5.385178230E-1,5.449801683E-1,1.102829129E-1,1.051076984E1
5.409888110E-1,5.286696553E-1,1.648258269E-1,1.042570114E1
5.434864920E-1,4.979191422E-1,2.086696476E-1,1.035611916E1
5.459813660E-1,4.708347321E-1,2.548328340E-1,1.026386833E1
5.485198580E-1,4.543745816E-1,2.888005674E-1,1.015141487E1
5.509746920E-1,4.367173612E-1,3.193266392E-1,1.005205631E1
5.535027690E-1,4.024503529E-1,3.666869402E-1,9.964592934E0
5.559866140E-1,3.657143116E-1,4.093336761E-1,9.883114815E0
5.584560970E-1,3.742436469E-1,4.279635549E-1,9.807772636E0
5.609506850E-1,3.446153998E-1,4.586392641E-1,9.722778320E0
5.634710700E-1,3.208978474E-1,4.834791124E-1,9.671228409E0
5.659663100E-1,3.161842525E-1,4.867711365E-1,9.619827271E0
5.684614680E-1,3.090764880E-1,4.961234927E-1,9.586308479E0
5.709565440E-1,3.042132556E-1,4.876689613E-1,9.564910889E0
5.734254160E-1,2.864812016E-1,5.042787194E-1,9.538499832E0
5.759458430E-1,2.707692385E-1,4.828805625E-1,9.549347878E0
5.784407160E-1,2.386719882E-1,4.985924959E-1,9.555184364E0
5.809302580E-1,1.969979107E-1,5.177460909E-1,9.540669441E0
5.834315200E-1,1.600374132E-1,5.226093531E-1,9.532215118E0
5.858858250E-1,1.504606158E-1,5.190928578E-1,9.539397240E0
5.884204520E-1,1.373673230E-1,5.226841569E-1,9.533411980E0
5.909154470E-1,1.158943251E-1,5.179705620E-1,9.540519714E0
5.934084900E-1,9.449614584E-2,5.312135220E-1,9.545233727E0
5.959057630E-1,8.843582869E-2,5.229834318E-1,9.564387321E0
5.983631600E-1,7.407061756E-2,5.196914077E-1,9.595437050E0
6.008957940E-1,7.167641073E-2,5.187935829E-1,9.652748108E0
6.033901380E-1,5.140051618E-2,5.191676617E-1,9.694571495E0
6.058594580E-1,2.873042040E-2,5.219359994E-1,9.757793427E0
6.083801290E-1,3.815758973E-2,5.078700185E-1,9.797297478E0
6.108499370E-1,6.554127485E-2,4.937292933E-1,9.845181465E0
6.133697930E-1,6.172551215E-2,4.593874514E-1,9.897929192E0
6.158648290E-1,6.277297437E-2,4.455459714E-1,9.974469185E0
6.183274350E-1,7.811082900E-2,4.207809567E-1,1.003671837E1
6.208550630E-1,5.895721540E-2,4.080617428E-1,1.010121155E1
6.233245050E-1,6.943184882E-2,3.771615922E-1,1.013368320E1
6.258443210E-1,5.132569745E-2,3.513490856E-1,1.019585800E1
6.283393160E-1,4.758475721E-2,3.229927719E-1,1.024621105E1
6.308257260E-1,2.955342643E-2,3.111714125E-1,1.026648617E1
6.333295510E-1,2.341828495E-2,2.837877274E-1,1.027022743E1
6.357985450E-1,1.840542629E-2,2.469020486E-1,1.029072762E1
6.383190930E-1,2.790741436E-2,2.371007800E-1,1.025496483E1
6.408146580E-1,2.177227102E-2,2.154781520E-1,1.022877789E1
6.432836120E-1,1.563712955E-2,1.923591495E-1,1.016435909E1
6.458045670E-1,2.783259563E-2,2.243067771E-1,1.011639977E1
6.482733170E-1,4.810849205E-2,2.226607651E-1,1.004958725E1
6.507938250E-1,5.042787269E-2,2.077718228E-1,9.956512451E0
6.532886970E-1,5.386953801E-2,1.941547990E-1,9.876530647E0
6.557587910E-1,5.633855984E-2,1.972971857E-1,9.802460670E0
6.582532160E-1,7.900865376E-2,1.929576993E-1,9.695020676E0
6.607481290E-1,8.140286058E-2,1.937058866E-1,9.626935005E0
6.632426370E-1,7.788637280E-2,2.002151161E-1,9.560196877E0
6.657378760E-1,6.815993041E-2,1.794154942E-1,9.475502014E0
6.682344180E-1,6.479308009E-2,2.017114908E-1,9.407267570E0
6.707529310E-1,7.190086693E-2,2.015618533E-1,9.381006241E0
6.732229020E-1,5.042787269E-2,2.026093155E-1,9.347487450E0
6.757432070E-1,4.803367332E-2,1.953518987E-1,9.336788177E0
6.782380790E-1,5.050269142E-2,2.084451914E-1,9.328408241E0
6.807330340E-1,5.888239667E-2,2.086696476E-1,9.372626305E0
6.832283950E-1,4.818331078E-2,2.195931822E-1,9.385644913E0
6.857020280E-1,6.007950008E-2,2.126350403E-1,9.434725761E0
6.881944600E-1,4.923077300E-2,1.975216419E-1,9.493309021E0
6.906877870E-1,9.105448425E-2,2.132335901E-1,9.547028542E0
6.932081310E-1,9.457096457E-2,1.969230920E-1,9.617583275E0
6.956953950E-1,1.076642573E-1,1.995417476E-1,9.671378136E0
6.981980810E-1,1.328033805E-1,2.047790587E-1,9.756147385E0
7.006929140E-1,1.565957516E-1,2.004395723E-1,9.843461037E0
7.031874200E-1,1.755997241E-1,1.900397539E-1,9.912817955E0
7.056568620E-1,1.839794368E-1,1.917605996E-1,1.000716496E1
7.081772070E-1,1.993921101E-1,1.851017177E-1,1.010398006E1
7.106722830E-1,2.292448133E-1,1.793406755E-1,1.014947033E1
7.131414810E-1,2.531120181E-1,1.805377752E-1,1.016503239E1
7.156623550E-1,2.470516860E-1,1.724573374E-1,1.020206738E1
7.181565770E-1,2.709937096E-1,1.868973672E-1,1.023663425E1
7.206517760E-1,2.769044042E-1,1.724573374E-1,1.022960091E1
7.231466900E-1,2.578255832E-1,1.760486364E-1,1.021164417E1
7.256417250E-1,2.614169121E-1,1.723825186E-1,1.020685577E1
7.281363130E-1,2.400187254E-1,1.889174730E-1,1.016016865E1
7.306441670E-1,2.103156596E-1,2.044049650E-1,1.013375759E1
7.331264260E-1,2.043301463E-1,2.066495270E-1,1.010629940E1
7.356220720E-1,1.806125939E-1,2.254290581E-1,1.003686810E1
7.380973730E-1,1.781435758E-1,2.154781520E-1,9.969979286E0
7.406116960E-1,1.496376097E-1,2.342576683E-1,9.904139519E0
7.430809750E-1,1.125274822E-1,2.136076838E-1,9.825354576E0
7.456011170E-1,1.066167951E-1,2.204910070E-1,9.769165993E0
7.480969670E-1,1.053448766E-1,2.057517022E-1,9.704747200E0
7.505910660E-1,9.808745235E-2,1.972971857E-1,9.678485870E0
7.530863460E-1,1.040729582E-1,1.922095120E-1,9.640328407E0
7.555347920E-1,1.074398011E-1,1.647510082E-1,9.638083458E0
7.580758880E-1,9.419687092E-2,1.457470357E-1,9.654842377E0
7.605712500E-1,1.072901636E-1,1.398363411E-1,9.662099838E0
7.630682390E-1,1.046715081E-1,1.135001257E-1,9.651475906E0
7.655614440E-1,1.212812811E-1,9.689035267E-2,9.687389374E0
7.680512710E-1,1.306336373E-1,6.606500596E-2,9.730559349E0
7.705505800E-1,1.435772777E-1,4.593874514E-2,9.764153481E0
7.730460230E-1,1.625064462E-1,1.616086066E-2,9.792958260E0
7.755212420E-1,1.671452075E-1,9.726444259E-4,9.849222183E0
7.780350360E-1,1.597381383E-1,-3.927987069E-2,9.899575233E0
7.804898700E-1,1.823334247E-1,-4.616320133E-2,9.962946892E0
7.830253920E-1,1.821089685E-1,-7.960720360E-2,9.964293480E0
7.855205100E-1,1.892167479E-1,-8.304887265E-2,9.988235474E0
7.879947940E-1,2.081459165E-1,-1.057937890E-1,1.000028133E1
7.905092390E-1,1.889922917E-1,-1.176899746E-1,9.987188339E0
7.929799410E-1,1.651251018E-1,-1.212064624E-1,9.990778923E0
7.954745710E-1,1.589899510E-1,-1.393874288E-1,9.944241524E0
7.979953640E-1,1.579424888E-1,-1.238999367E-1,9.933393478E0
8.004693210E-1,1.436520964E-1,-1.193359941E-1,9.887978554E0
8.029843770E-1,1.293617040E-1,-1.100584567E-1,9.838896751E0
8.054555690E-1,1.163432375E-1,-9.232640266E-2,9.798195839E0
8.079744070E-1,9.023147821E-2,-7.841010392E-2,9.715670586E0
8.104701350E-1,1.011550203E-1,-5.843348429E-2,9.665391922E0
8.129387230E-1,7.863456011E-2,-2.753331885E-2,9.625813484E0
8.154330260E-1,1.086369008E-1,-8.903437294E-3,9.561244011E0
8.179541440E-1,1.137245819E-1,3.254617751E-2,9.501389503E0
8.204494240E-1,9.950900823E-2,5.012859777E-2,9.448717117E0
8.229447050E-1,1.212064624E-1,8.013093472E-2,9.441235542E0
8.254385190E-1,1.322796494E-1,1.241243929E-1,9.414749146E0
8.279067000E-1,1.552490145E-1,1.660229266E-1,9.437270164E0
8.304285100E-1,1.733551621E-1,1.992424726E-1,9.415647507E0
8.329245210E-1,2.011129409E-1,2.436100245E-1,9.464428902E0
8.354185400E-1,1.976712793E-1,2.665045857E-1,9.487024307E0
8.379254990E-1,2.012625784E-1,2.666542232E-1,9.518074036E0
8.403836690E-1,2.157774270E-1,2.968810201E-1,9.584887505E0
8.429034850E-1,2.136076838E-1,3.259107172E-1,9.643245697E0
8.453990910E-1,2.292448133E-1,3.430442214E-1,9.722029686E0
8.478841970E-1,2.364274114E-1,3.483563364E-1,9.821165085E0
8.504032810E-1,2.293944508E-1,3.704279065E-1,9.916633606E0
8.528632430E-1,2.281973511E-1,3.748421967E-1,1.005272961E1
8.553780540E-1,2.258031517E-1,3.705027103E-1,1.012328339E1
8.578738220E-1,1.995417476E-1,3.734206557E-1,1.019727898E1
8.603686540E-1,1.766472012E-1,3.450643122E-1,1.023917770E1
8.628870060E-1,1.862988174E-1,3.607762754E-1,1.027015305E1
8.653325210E-1,1.755249053E-1,3.609259129E-1,1.029401970E1
8.678527850E-1,1.468693167E-1,3.525462151E-1,1.027134991E1
8.703481060E-1,1.528548151E-1,3.618985415E-1,1.024501324E1
8.728428160E-1,1.348983049E-1,3.534440398E-1,1.021396351E1
8.753120140E-1,1.170914248E-1,3.578583300E-1,1.014228725E1
8.778092060E-1,1.039981395E-1,3.645172119E-1,1.005736828E1
8.803028990E-1,9.090484679E-2,3.651905656E-1,9.959429741E0
8.827969580E-1,6.239888072E-2,3.860650361E-1,9.843386650E0
8.853053810E-1,3.733458370E-2,3.818751574E-1,9.717989922E0
8.877869490E-1,2.304419130E-2,3.884592354E-1,9.615188599E0
8.902844660E-1,1.361702196E-2,4.071639180E-1,9.545831680E0
8.928028590E-1,1.503857970E-2,4.317793250E-1,9.459640503E0
8.952972030E-1,-2.992752125E-4,4.623802006E-1,9.378237724E0
8.977917500E-1,-1.339256577E-2,4.633528590E-1,9.337611198E0
9.002616390E-1,-2.753331885E-2,4.894646108E-1,9.300426483E0
9.027568380E-1,-4.077624902E-2,4.730044603E-1,9.299154282E0
9.052768980E-1,-3.950432688E-2,4.860977530E-1,9.295488358E0
9.077724220E-1,-4.055179283E-2,5.030816197E-1,9.336039543E0
9.102714050E-1,-1.496376062E-4,4.790647924E-1,9.339780807E0
9.127383240E-1,1.556231081E-2,5.068973899E-1,9.410184860E0
9.152310810E-1,9.651625529E-3,5.191676617E-1,9.462633133E0
9.177513040E-1,3.464110568E-2,5.149778128E-1,9.567828178E0
9.202465030E-1,4.414309561E-2,5.011363626E-1,9.657536507E0
9.227411720E-1,6.681319326E-2,5.039794445E-1,9.747094154E0
9.252104110E-1,7.511807978E-2,4.985924959E-1,9.853487015E0
9.277074410E-1,7.983165979E-2,4.955997467E-1,9.946636200E0
9.302262790E-1,9.180267155E-2,4.973205924E-1,1.005183125E1
9.327218040E-1,7.025485486E-2,4.896142483E-1,1.014617825E1
9.352157410E-1,5.933130905E-2,4.731540978E-1,1.017849922E1
9.376860780E-1,6.299743056E-2,4.828805625E-1,1.021665764E1
9.401805030E-1,3.673603386E-2,4.819827378E-1,1.024531269E1
9.426951930E-1,2.828150801E-2,4.711340070E-1,1.022743130E1
9.451955990E-1,-8.529343642E-3,4.938789308E-1,1.022009850E1
9.476912860E-1,-1.189618930E-2,5.260509849E-1,1.019600677E1
9.501603210E-1,-3.568856791E-2,5.339818001E-1,1.012073994E1
9.526814400E-1,-5.955576897E-2,5.371990204E-1,1.003941154E1
9.551757020E-1,-8.072949201E-2,5.738602281E-1,9.965190887E0
9.576712670E-1,-8.185177296E-2,5.841103792E-1,9.887454033E0
9.601208520E-1,-9.950900823E-2,6.206967831E-1,9.803657532E0
9.626600770E-1,-9.935937077E-2,6.429179907E-1,9.725920677E0
9.651553980E-1,-1.229272932E-1,6.820482016E-1,9.658733368E0
9.676252870E-1,-1.166425124E-1,7.245453000E-1,9.585710526E0
9.701453060E-1,-1.212064624E-1,7.529016137E-1,9.524658203E0
9.726191020E-1,-1.306336373E-1,7.764695287E-1,9.466000557E0
9.751350530E-1,-1.399859786E-1,8.036287427E-1,9.408464432E0
9.776305770E-1,-1.312321872E-1,8.525602818E-1,9.404648781E0
9.800991230E-1,-1.106570065E-1,8.965536952E-1,9.380631447E0
9.826205260E-1,-1.212064624E-1,9.240122437E-1,9.374496460E0
9.851138940E-1,-1.019032076E-1,9.575310349E-1,9.395819664E0
9.876095400E-1,-1.039981395E-1,9.946411848E-1,9.415946007E0
9.901051860E-1,-1.074398011E-1,1.013869643E0,9.434949875E0
9.925994490E-1,-8.716390282E-2,1.012897015E0,9.479243279E0
9.950951760E-1,-1.060930640E-1,1.041777015E0,9.501763344E0
9.975890730E-1,-9.397241473E-2,1.072003841E0,9.566107750E0
1.000084109E0,-8.910919726E-2,1.086518645E0,9.610250473E0
1.002579836E0,-9.382277727E-2,1.086743116E0,9.641300201E0
1.005091514E0,-1.046715081E-1,1.076418161E0,9.703474998E0
1.007569583E0,-1.141734943E-1,1.084947467E0,9.732055664E0
1.010027550E0,-9.501987696E-2,1.093551636E0,9.775076866E0
1.012558881E0,-1.011550203E-1,1.067365050E0,9.796699524E0
1.015054568E0,-9.165303409E-2,1.066317558E0,9.826552391E0
1.017543582E0,-9.891045839E-2,1.055618525E0,9.830142975E0
1.020044395E0,-1.024269387E-1,1.055992603E0,9.882740974E0
1.022531659E0,-1.110311002E-1,1.027336955E0,9.878102303E0
1.025033531E0,-1.028010324E-1,1.007061124E0,9.893739700E0
1.027503298E0,-1.019032076E-1,9.665092826E-1,9.903465271E0
1.029998415E0,-1.069908887E-1,9.198971987E-1,9.901295662E0
1.032493411E0,-1.155202314E-1,8.971522450E-1,9.885883331E0
1.034987917E0,-1.135001257E-1,8.372972012E-1,9.862315178E0
1.037530357E0,-1.255459487E-1,8.289175034E-1,9.850344658E0
1.040002240E0,-1.066916138E-1,7.928548455E-1,9.819519043E0
1.042475792E0,-8.903437853E-2,7.534253597E-1,9.835230827E0
1.044967450E0,-9.180267155E-2,7.009025216E-1,9.835530281E0
1.047462486E0,-7.190086693E-2,6.432920694E-1,9.803582191E0
1.049982709E0,-6.015431881E-2,6.194248796E-1,9.807323456E0
1.052478436E0,-1.391629782E-2,5.714660287E-1,9.807622910E0
1.054972414E0,3.591302549E-3,5.154267550E-1,9.829395294E0
1.057468305E0,4.496610165E-2,4.518307447E-1,9.805901527E0
1.059956464E0,6.015431881E-2,4.102315009E-1,9.846753120E0
1.062457685E0,7.998129725E-2,3.433434963E-1,9.860219955E0
1.064953087E0,1.224783808E-1,2.789244950E-1,9.889249802E0
1.067424888E0,1.494879723E-1,2.145803273E-1,9.932644844E0
1.069905642E0,2.027589530E-1,1.502361596E-1,9.985542297E0
1.072406944E0,2.225111276E-1,7.399579883E-2,1.003020859E1
1.074918867E0,2.350806743E-1,-5.835866556E-3,1.008198357E1
1.077427086E0,2.525882721E-1,-6.763619930E-2,1.013959408E1
1.079921430E0,2.507178187E-1,-1.592892259E-1,1.018426037E1
1.082416914E0,2.727893591E-1,-2.465279549E-1,1.018830109E1
1.084911827E0,2.521393597E-1,-2.962824702E-1,1.024583626E1
1.087381065E0,2.540098429E-1,-3.665373027E-1,1.028803444E1
1.089902469E0,2.391957194E-1,-4.382137358E-1,1.027516556E1
1.092393842E0,2.400187254E-1,-4.907365441E-1,1.028264713E1
1.094891929E0,2.385223508E-1,-5.446060896E-1,1.026618767E1
1.097386477E0,2.513163686E-1,-5.877016783E-1,1.025324345E1
1.099881431E0,2.486228794E-1,-6.286275983E-1,1.020685577E1
1.102376996E0,2.507178187E-1,-6.753893495E-1,1.017842484E1
1.104864098E0,2.505681813E-1,-6.997054219E-1,1.010330677E1
1.107366906E0,2.694973350E-1,-7.240215540E-1,1.004247856E1
1.109829389E0,2.599205077E-1,-7.270143032E-1,9.929053307E0
1.112356000E0,2.717418969E-1,-7.480384111E-1,9.824007988E0
1.114851728E0,2.598457038E-1,-7.438485622E-1,9.717690468E0
1.117330487E0,2.671031356E-1,-7.384616137E-1,9.619752884E0
1.119840904E0,2.611924410E-1,-7.306056023E-1,9.536030769E0
1.122290489E0,2.600701451E-1,-7.227496505E-1,9.441609383E0
1.124830894E0,2.386719882E-1,-7.113772035E-1,9.342399597E0
1.127326500E0,2.397942692E-1,-7.248445749E-1,9.280374527E0
1.129837649E0,2.246060520E-1,-6.787561774E-1,9.190517426E0
1.132316083E0,2.187701762E-1,-6.588543653E-1,9.128268242E0
1.134804934E0,1.892915666E-1,-6.088005900E-1,9.087416649E0
1.137284386E0,1.631798148E-1,-5.897966027E-1,9.055020332E0
1.139801069E0,1.561468393E-1,-5.672013760E-1,9.035792351E0
1.142266197E0,1.374421418E-1,-5.148282051E-1,9.033247948E0
1.144791059E0,1.317559183E-1,-4.716577232E-1,9.049782753E0
1.147283898E0,1.117044762E-1,-4.343231618E-1,9.094973564E0
1.149780154E0,1.036988646E-1,-3.862146735E-1,9.143680573E0
1.152275434E0,1.039981395E-1,-3.454384208E-1,9.170914650E0
1.154744795E0,1.233013868E-1,-3.115454912E-1,9.261594772E0
1.157239504E0,1.309329122E-1,-2.454056740E-1,9.343671799E0
1.159738772E0,1.491886973E-1,-1.852513552E-1,9.425897598E0
1.162229251E0,1.757493615E-1,-1.453729272E-1,9.509320259E0
1.164724043E0,1.833060682E-1,-8.753799647E-2,9.605836868E0
1.167245486E0,1.931073368E-1,-4.765957594E-2,9.688062668E0
1.169739586E0,2.124854028E-1,-4.264671821E-3,9.766696930E0
1.172223758E0,2.188449949E-1,5.140051618E-2,9.881094933E0
1.174729372E0,2.286462635E-1,9.337386489E-2,9.925163269E0
1.177225182E0,2.229600400E-1,1.392377913E-1,1.000132847E1
1.179705162E0,2.208651006E-1,1.742529869E-1,1.005609608E1
1.182214724E0,2.056020647E-1,2.151040584E-1,1.009410381E1
1.184668826E0,1.855506301E-1,2.486976981E-1,1.010704803E1
1.187178755E0,1.595885009E-1,2.905962169E-1,1.010442924E1
1.189699709E0,1.408089846E-1,3.396025598E-1,1.010300732E1
1.192168541E0,1.051952392E-1,3.634697497E-1,1.007412720E1
1.194689456E0,7.796119153E-2,3.943699002E-1,1.004045868E1
1.197158776E0,5.424363166E-2,4.180874825E-1,9.988983154E0
1.199639976E0,2.341828495E-2,4.538508654E-1,9.962497711E0
1.202173750E0,8.230068488E-4,4.559457898E-1,9.909899712E0
1.204668786E0,-3.479074314E-2,4.806360006E-1,9.816526413E0
1.207151654E0,-5.970540643E-2,5.101894140E-1,9.760188103E0
1.209658409E0,-6.673837453E-2,5.242553353E-1,9.705195427E0
1.212153527E0,-1.108066440E-1,5.395932198E-1,9.652448654E0
1.214649050E0,-1.236754805E-1,5.716904998E-1,9.611672401E0
1.217123619E0,-1.366191357E-1,5.954828262E-1,9.591246605E0
1.219612796E0,-1.446995586E-1,6.384288669E-1,9.577854156E0
1.222133140E0,-1.829319745E-1,6.324433684E-1,9.553987503E0
1.224628624E0,-2.150292397E-1,6.539911628E-1,9.550246239E0
1.227122765E0,-2.446574867E-1,6.804770231E-1,9.560795784E0
1.229618778E0,-2.647837400E-1,7.044938207E-1,9.579724312E0
1.232087527E0,-3.027916849E-1,7.309796810E-1,9.589152336E0
1.234607303E0,-3.231424093E-1,7.204302549E-1,9.619004250E0
1.237103234E0,-3.684077859E-1,7.362918258E-1,9.646313667E0
1.239597659E0,-4.064905643E-1,7.557447553E-1,9.676016808E0
1.242088382E0,-4.349965155E-1,7.751976252E-1,9.728464127E0
1.244562178E0,-4.827309251E-1,7.744494081E-1,9.772607803E0
1.247082441E0,-5.353285074E-1,7.725789547E-1,9.825055122E0
1.249577029E0,-5.497685671E-1,7.561188340E-1,9.870545387E0
1.252072147E0,-5.925649405E-1,7.757961750E-1,9.933692932E0
1.254542320E0,-6.404489279E-1,7.632266283E-1,1.000177765E1
1.257036868E0,-6.549637914E-1,7.359925508E-1,1.003529644E1
1.259557295E0,-6.717980504E-1,7.206547260E-1,1.006642151E1
1.262052616E0,-6.994061470E-1,6.921487451E-1,1.007846642E1
1.264546837E0,-7.163152099E-1,6.722469330E-1,1.013473034E1
1.267006310E0,-7.309796810E-1,6.196493506E-1,1.011580181E1
1.269499963E0,-7.275380492E-1,6.031143665E-1,1.014932060E1
1.272031537E0,-7.610568404E-1,5.792471766E-1,1.013630199E1
1.274527062E0,-7.805097699E-1,5.326350331E-1,1.011617565E1
1.277021569E0,-7.842506766E-1,5.134814382E-1,1.011625004E1
1.279516563E0,-7.879168391E-1,4.967220426E-1,1.009844303E1
1.281987348E0,-8.036287427E-1,4.642506838E-1,1.006148338E1
1.284506798E0,-8.051251173E-1,4.186111987E-1,1.000918484E1
1.287001956E0,-8.099883795E-1,4.088099301E-1,9.972224236E0
1.289496096E0,-8.100631833E-1,3.978863955E-1,9.935189247E0
1.291991377E0,-8.041524887E-1,3.891325891E-1,9.882740974E0
1.294479984E0,-8.031050563E-1,3.698293567E-1,9.846977234E0
1.296981122E0,-7.829039693E-1,3.550900519E-1,9.790938377E0
1.299476647E0,-7.769184709E-1,3.537433147E-1,9.773056984E0
1.301970991E0,-7.831284404E-1,3.241150677E-1,9.751434326E0
1.304457075E0,-7.436988950E-1,3.238157928E-1,9.720458984E0
1.306944746E0,-7.389853001E-1,3.187280893E-1,9.672649384E0
1.309455814E0,-7.222259045E-1,3.198503852E-1,9.670330048E0
1.311950686E0,-6.937199235E-1,3.006219566E-1,9.662099838E0
1.314445356E0,-6.438158154E-1,2.730138004E-1,9.669432640E0
1.316939212E0,-6.425438523E-1,2.801215947E-1,9.662249565E0
1.319410282E0,-6.152350307E-1,2.574515045E-1,9.673172951E0
1.321930056E0,-5.770774484E-1,2.575263083E-1,9.706692696E0
1.324399824E0,-5.497685671E-1,2.383727133E-1,9.715147018E0
1.326947635E0,-5.295674801E-1,2.216132879E-1,9.720085144E0
1.329421308E0,-4.807856381E-1,2.048538774E-1,9.747693062E0
1.331879804E0,-4.688894451E-1,1.918354183E-1,9.770438194E0
1.334405277E0,-4.690390825E-1,1.727566123E-1,9.771709442E0
1.336900515E0,-4.667945206E-1,1.574187577E-1,9.807697296E0
1.339394819E0,-4.632032216E-1,1.587654948E-1,9.831564903E0
1.341866133E0,-4.515314698E-1,1.217301935E-1,9.848473549E0
1.344384646E0,-4.359691739E-1,1.264437735E-1,9.843685150E0
1.346880333E0,-4.406827390E-1,1.287631541E-1,9.831714630E0
1.349375451E0,-4.324526787E-1,1.097591817E-1,9.848548889E0
1.351869307E0,-4.419546723E-1,1.182885244E-1,9.868824959E0
1.354339724E0,-4.229506850E-1,1.122282073E-1,9.864110947E0
1.356841597E0,-4.207061231E-1,9.075520933E-2,9.872565269E0
1.359354455E0,-4.099322259E-1,9.060557187E-2,9.859472275E0
1.361850019E0,-3.909282386E-1,8.334814757E-2,9.846379280E0
1.364344119E0,-3.931728005E-1,9.763853997E-2,9.841515541E0
1.366813683E0,-4.062660933E-1,1.048211455E-1,9.835454941E0
1.369308637E0,-3.895815015E-1,9.509469569E-2,9.816451073E0
1.371828698E0,-3.740940094E-1,9.142857790E-2,9.808146477E0
1.374324385E0,-3.835960031E-1,1.069908887E-1,9.810391426E0
1.376818769E0,-3.991583288E-1,9.614216536E-2,9.791312218E0
1.379288211E0,-3.670610487E-1,8.057985455E-2,9.792658806E0
1.381783857E0,-3.752911091E-1,9.008184075E-2,9.805827141E0
1.384303837E0,-3.788824081E-1,9.726444632E-2,9.806949615E0
1.386799401E0,-3.598036170E-1,8.641571552E-2,9.795127869E0
1.389293501E0,-3.561375141E-1,9.950900823E-2,9.787870407E0
1.391763146E0,-3.370586932E-1,9.958382696E-2,9.809418678E0
1.394257856E0,-3.286789954E-1,9.943418950E-2,9.795127869E0
1.396778283E0,-3.047369719E-1,1.172410622E-1,9.787870407E0
1.399273766E0,-2.832639813E-1,1.159691438E-1,9.783157349E0
1.401768273E0,-2.509422600E-1,1.244236678E-1,9.816600800E0
1.404258304E0,-2.292448133E-1,1.553238332E-1,9.800964355E0
1.406732710E0,-1.826326996E-1,1.635539085E-1,9.805752754E0
1.409253095E0,-1.669955701E-1,1.862239987E-1,9.810465813E0
1.411748497E0,-1.334767491E-1,1.968482733E-1,9.814057350E0
1.414242801E0,-9.995792061E-2,2.110638469E-1,9.812785149E0
1.416693485E0,-6.890811771E-2,2.170493454E-1,9.831938744E0
1.419235558E0,-5.072714761E-2,2.503437102E-1,9.816301346E0
1.421727380E0,-3.883095831E-2,2.478746921E-1,9.812710762E0
1.424222945E0,-1.608604193E-2,2.596960664E-1,9.794754028E0
1.426717329E0,-5.087678786E-3,2.941875458E-1,9.779116631E0
1.429176110E0,8.080430329E-3,2.988263071E-1,9.764751434E0
1.431686812E0,1.047463249E-2,3.023427725E-1,9.750386238E0
1.434202395E0,8.304887451E-3,3.298760951E-1,9.768193245E0
1.436697879E0,1.316810958E-2,3.464858830E-1,9.741857529E0
1.439191979E0,1.496376062E-4,3.583820760E-1,9.733402252E0
1.441658857E0,-1.526303589E-2,3.714753687E-1,9.716567993E0
1.444156660E0,-2.244564146E-2,3.667617738E-1,9.724947929E0
1.446677249E0,-3.306991234E-2,3.846434653E-1,9.714098930E0
1.449172570E0,-4.631283879E-2,3.667617738E-1,9.712977409E0
1.451641930E0,-5.461772531E-2,3.799298704E-1,9.704522133E0
1.454155765E0,-5.596446618E-2,3.561375141E-1,9.726144791E0
1.456656254E0,-5.611410365E-2,3.369838893E-1,9.717915535E0
1.459151818E0,-7.047931105E-2,3.311480284E-1,9.728613853E0
1.461647057E0,-7.788637280E-2,2.915688753E-1,9.739762306E0
1.464115767E0,-7.085340470E-2,2.796726823E-1,9.745747566E0
1.466636559E0,-8.282441646E-2,2.666542232E-1,9.757793427E0
1.469131961E0,-6.995557994E-2,2.356044054E-1,9.769913673E0
1.471648197E0,-7.594108582E-2,2.272995263E-1,9.781885147E0
1.474121666E0,-1.049707830E-1,1.773205698E-1,9.791611671E0
1.476599572E0,-1.025765762E-1,1.761234552E-1,9.798793793E0
1.479087568E0,-1.217301935E-1,1.641524583E-1,9.774927139E0
1.481566491E0,-1.243488491E-1,1.390881538E-1,9.784578323E0
1.484075890E0,-1.458966732E-1,1.238251179E-1,9.808520317E0
1.486595829E0,-1.842787117E-1,1.024269387E-1,9.807398796E0
1.489065433E0,-1.640028208E-1,9.629180282E-2,9.788319588E0
1.491585696E0,-2.091933787E-1,1.166425124E-1,9.770288467E0
1.494081099E0,-1.901893914E-1,1.117792949E-1,9.771485329E0
1.496540083E0,-2.153285146E-1,9.876082093E-2,9.772757530E0
1.499071089E0,-2.283469886E-1,1.105821878E-1,9.751134872E0
1.501539880E0,-2.223614901E-1,1.176899746E-1,9.742754936E0
1.504060184E0,-2.294692695E-1,1.212064624E-1,9.728389740E0
1.506554935E0,-2.569277585E-1,1.200841814E-1,9.729586601E0
1.509026777E0,-2.056020647E-1,1.246481240E-1,9.714098930E0
1.511545780E0,-2.246808708E-1,1.185877994E-1,9.693748474E0
1.514040084E0,-2.174982578E-1,1.294365227E-1,9.711629868E0
1.516534997E0,-1.875707358E-1,1.389385164E-1,9.720009804E0
1.519030480E0,-1.840542555E-1,1.306336373E-1,9.733178139E0
1.521537235E0,-1.612345278E-1,1.461959481E-1,9.755847931E0
1.524020511E0,-1.303343624E-1,1.283142418E-1,9.769090652E0
1.526504968E0,-1.172410622E-1,1.296609789E-1,9.803807259E0
1.529009607E0,-1.220294684E-1,1.215057373E-1,9.832462311E0
1.531504764E0,-1.137245819E-1,1.228524745E-1,9.871891975E0
1.533974206E0,-1.137245819E-1,1.207575500E-1,9.919701576E0
1.536494999E0,-9.097966552E-2,1.338508427E-1,9.928006172E0
1.538964115E0,-9.105448425E-2,1.186626181E-1,9.978284836E0
1.541458418E0,-9.943418950E-2,1.126771197E-1,1.000357342E1
1.543954146E0,-1.100584567E-1,1.307832748E-1,1.003088188E1
1.546449304E0,-1.016787514E-1,1.355716735E-1,1.003686810E1
1.548969526E0,-7.668927312E-2,1.319803745E-1,1.004764175E1
1.551438399E0,-8.491934091E-2,1.475426853E-1,1.005355263E1
1.553958825E0,-1.040729582E-1,1.368435919E-1,1.005355263E1
1.556454064E0,-9.090484679E-2,1.461959481E-1,1.002968502E1
1.558924076E0,-8.843582869E-2,1.555482894E-1,9.996166229E0
1.561444258E0,-9.187749028E-2,1.698386818E-1,9.978209496E0
1.563913252E0,-8.454524726E-2,1.969979107E-1,9.932644844E0
1.566433760E0,-8.693944663E-2,1.980453730E-1,9.913566589E0
1.568929406E0,-8.327332884E-2,2.073229104E-1,9.865756989E0
1.571421228E0,-8.087912947E-2,2.107645720E-1,9.846603394E0
1.573919355E0,-6.397007406E-2,2.355295867E-1,9.803507805E0
1.576388024E0,-6.516718119E-2,2.388216257E-1,9.747319221E0
1.578884159E0,-7.586626709E-2,2.400935441E-1,9.752107620E0
1.581403364E0,-5.431845039E-2,2.471265048E-1,9.738939285E0
1.583898848E0,-4.601356387E-2,2.409913689E-1,9.719860077E0
1.586350224E0,-4.025251791E-2,2.135328650E-1,9.727192879E0
1.588888227E0,-3.546411172E-2,2.098667473E-1,9.712902069E0
1.591382897E0,-5.686229095E-3,2.038812339E-1,9.727267265E0
1.593878544E0,-1.182137057E-2,1.787421256E-1,9.715446472E0
1.596331098E0,-1.122282003E-3,1.752256304E-1,9.729811668E0
1.598861535E0,-1.496376062E-4,1.452232897E-1,9.715670586E0
1.601362634E0,2.020107582E-3,1.059434265E-1,9.739762306E0
1.603835779E0,1.144727692E-2,9.748890251E-2,9.731457710E0
1.606352217E0,7.781155407E-3,8.566752821E-2,9.748216629E0
1.608811853E0,-3.142389702E-3,5.828384683E-2,9.747094154E0
1.611316939E0,-1.047463249E-2,3.202244639E-2,9.754426956E0
1.613838138E0,-3.441664856E-3,1.780687459E-2,9.780762672E0
1.616308841E0,-1.556231081E-2,-9.576806799E-3,9.782109261E0
1.618827315E0,-8.604162373E-3,-4.429273307E-2,9.770288467E0
1.621290449E0,-3.254617751E-2,-4.967968538E-2,9.799916267E0
1.623796919E0,-3.965396434E-2,-4.728548229E-2,9.803507805E0
1.626312748E0,-5.663783476E-2,-8.783727139E-2,9.804854393E0
1.628803673E0,-5.903203413E-2,-8.671499044E-2,9.791686058E0
1.631301721E0,-6.868366152E-2,-9.501987696E-2,9.790564537E0
1.633776778E0,-8.783727139E-2,-1.105821878E-1,9.783456802E0
1.636266158E0,-1.093102694E-1,-1.045966893E-1,9.764227867E0
1.638787642E0,-1.164928749E-1,-1.104325503E-1,9.792958260E0
1.641281905E0,-1.380406916E-1,-1.141734943E-1,9.747543335E0
1.643776697E0,-1.618330777E-1,-1.092354506E-1,9.761834145E0
1.646261152E0,-1.904138476E-1,-9.487023950E-2,9.749712944E0
1.648741459E0,-2.118868530E-1,-9.479542077E-2,9.754501343E0
1.651262252E0,-2.262520641E-1,-1.056441516E-1,9.733028412E0
1.653732751E0,-2.477250546E-1,-9.614216536E-2,9.707889557E0
1.656250939E0,-2.559551299E-1,-7.945756614E-2,9.698237419E0
1.658707483E0,-2.845359147E-1,-7.571662962E-2,9.708862305E0
1.661202111E0,-2.987514734E-1,-6.135141850E-2,9.707590103E0
1.663710493E0,-3.201496601E-1,-4.713584483E-2,9.678859711E0
1.666205570E0,-3.296516538E-1,-3.740940243E-2,9.696666718E0
1.668725875E0,-3.248632550E-1,-3.860650212E-2,9.695544243E0
1.671229577E0,-3.270329833E-1,-1.114800200E-2,9.701379776E0
1.673690433E0,-3.270329833E-1,-5.162497517E-3,9.696516991E0
1.676211104E0,-3.185784519E-1,4.489128012E-3,9.721581459E0
1.678706261E0,-3.280056417E-1,2.483984269E-2,9.721506119E0
1.681187097E0,-3.399766386E-1,2.012625895E-2,9.728613853E0
1.683668339E0,-3.364601433E-1,1.548749208E-2,9.756147385E0
1.686180220E0,-3.113958538E-1,1.668459363E-2,9.762132645E0
1.688685795E0,-3.185036480E-1,2.536357380E-2,9.808670044E0
1.691154993E0,-3.051858842E-1,4.459200799E-2,9.839645386E0
1.693675094E0,-3.148375154E-1,3.172317147E-2,9.880346298E0
1.696144291E0,-3.112462163E-1,3.546411172E-2,9.912593842E0
1.698639693E0,-3.208978474E-1,2.730886266E-2,9.944840431E0
1.701160079E0,-3.185036480E-1,2.543839253E-2,9.969680786E0
1.703655196E0,-3.268833458E-1,1.833060756E-2,9.979257584E0
1.706140263E0,-3.208978474E-1,2.461538650E-2,1.003305149E1
1.708620447E0,-3.436427712E-1,2.117372118E-2,1.004135704E1
1.711139855E0,-3.614496291E-1,3.321954980E-2,1.004846478E1
1.713635461E0,-3.733458221E-1,3.681085259E-2,1.005317783E1
1.716103845E0,-4.210053980E-1,4.653729498E-2,1.005190659E1
1.718598107E0,-4.291606545E-1,7.758709788E-2,1.004457378E1
1.721119429E0,-4.468927085E-1,1.061678827E-1,1.002407360E1
1.723614465E0,-4.884919524E-1,1.277156919E-1,1.000117874E1
1.726121912E0,-5.003881454E-1,1.360205859E-1,9.995193481E0
1.728585168E0,-5.347299576E-1,1.682674885E-1,9.972298622E0
1.731073612E0,-5.559785366E-1,2.075473666E-1,9.931447983E0
1.733594242E0,-5.795464516E-1,2.505681813E-1,9.924040794E0
1.736089685E0,-6.151602268E-1,2.792986035E-1,9.915436745E0
1.738556889E0,-6.447884440E-1,3.030161560E-1,9.878252029E0
1.741067265E0,-6.482301354E-1,3.292775452E-1,9.875782967E0
1.743548547E0,-6.634183526E-1,3.772363961E-1,9.897030830E0
1.746068526E0,-6.716483831E-1,3.929483593E-1,9.919626236E0
1.748564376E0,-6.893056035E-1,4.265419841E-1,9.936161041E0
1.751058434E0,-6.845920682E-1,4.254945219E-1,9.966013908E0
1.753548588E0,-6.772598028E-1,4.412064850E-1,1.000058079E1
1.756022953E0,-6.774094701E-1,4.260182679E-1,1.005796623E1
1.758517705E0,-6.619219780E-1,4.215291440E-1,1.010465336E1
1.761038985E0,-6.524947882E-1,4.088099301E-1,1.018949795E1
1.763532190E0,-6.083517075E-1,4.018518031E-1,1.024456501E1
1.766030685E0,-5.728875995E-1,3.544166684E-1,1.032604218E1
1.768497644E0,-5.538088083E-1,3.550152183E-1,1.043123722E1
1.771017785E0,-5.217863321E-1,3.279308081E-1,1.051982307E1
1.773513269E0,-4.744260311E-1,2.805705070E-1,1.061087704E1
1.776007694E0,-4.590881765E-1,2.522889972E-1,1.068030930E1
1.778501102E0,-4.127753377E-1,2.189198136E-1,1.071996307E1
1.780975549E0,-3.869628608E-1,1.567453891E-1,1.075632477E1
1.783492557E0,-3.608510792E-1,1.328033805E-1,1.076485443E1
1.785987675E0,-3.660883904E-1,6.958148628E-2,1.077233601E1
1.788457035E0,-3.579331636E-1,3.254617751E-2,1.078445721E1
1.790978154E0,-3.952677250E-1,-1.646013744E-2,1.075595093E1
1.793446903E0,-4.373159111E-1,-4.616320133E-2,1.075722313E1
1.795967289E0,-4.960486591E-1,-9.150339663E-2,1.072632313E1
1.798462651E0,-5.607669353E-1,-1.311573684E-1,1.065831280E1
1.800957116E0,-6.528688669E-1,-1.599625945E-1,1.058903027E1
1.803452722E0,-6.960393190E-1,-1.853261739E-1,1.051503468E1
1.805921472E0,-7.595604658E-1,-2.215384692E-1,1.041836834E1
1.808441939E0,-8.063222170E-1,-2.612672746E-1,1.033247662E1
1.810937707E0,-8.651298285E-1,-3.024924099E-1,1.020356369E1
1.813453251E0,-8.952069879E-1,-3.426701128E-1,1.005445004E1
1.815927250E0,-8.977507949E-1,-3.722235560E-1,9.908852577E0
1.818396244E0,-8.777741790E-1,-4.223521352E-1,9.721581459E0
1.820916671E0,-8.600421548E-1,-4.495861828E-1,9.574787140E0
1.823411707E0,-8.435820341E-1,-4.872200489E-1,9.481862068E0
1.825887740E0,-8.224082589E-1,-5.314379334E-1,9.484480858E0
1.828402104E0,-9.724947810E-1,-6.650643349E-1,9.434725761E0
1.830871017E0,-1.090484023E0,-7.997381687E-1,9.615563393E0
1.833390751E0,-1.149740577E0,-9.118915796E-1,9.610100746E0
1.835864831E0,-1.164928794E0,-1.041178465E0,9.553313255E0
1.838381718E0,-1.116969943E0,-1.178321362E0,9.610250473E0
1.840876672E0,-1.142782450E0,-1.110535502E0,9.953893661E0
1.843370854E0,-1.051578283E0,-1.210418582E0,1.006918907E1
1.845866581E0,-9.359084368E-1,-1.219621301E0,9.998934746E0
1.848360925E0,-7.656956315E-1,-9.478794336E-1,9.789965630E0
1.850865075E0,-5.593453646E-1,-4.582651556E-1,9.490466118E0
1.853350590E0,-3.110965788E-1,2.145055085E-1,9.268927574E0
1.855846033E0,-1.057937890E-1,9.044097066E-1,9.103427887E0
1.858315962E0,2.543839393E-3,1.377638578E0,8.997335434E0
1.860836186E0,1.226280183E-1,1.649305701E0,8.967632294E0
1.863311691E0,2.327612936E-1,1.870470047E0,9.064672470E0
1.865826013E0,2.390460819E-1,2.093355179E0,9.183035851E0
1.868320642E0,1.489642411E-1,2.185981035E0,9.245733261E0
1.870796839E0,8.005611598E-3,2.174907684E0,9.322049141E0
1.873309574E0,-2.013373971E-1,2.110414028E0,9.403302193E0
1.875779748E0,-4.070891142E-1,2.047416449E0,9.543063164E0
1.878299890E0,-5.831377506E-1,1.958307385E0,9.724798203E0
1.880795293E0,-6.976853609E-1,1.806051135E0,9.970204353E0
1.883289758E0,-8.219593763E-1,1.619153738E0,1.020865154E1
1.885785283E0,-8.922890425E-1,1.458068848E0,1.040048695E1
1.888254725E0,-8.923638463E-1,1.279700756E0,1.053396416E1
1.890774906E0,-9.582792521E-1,1.067439914E0,1.055760670E1
1.893270186E0,-1.012448072E0,8.296657205E-1,1.051443577E1
1.895740198E0,-1.057114840E0,5.806687474E-1,1.038896465E1
1.898259525E0,-1.096020699E0,3.070563674E-1,1.015732574E1
1.900748092E0,-1.136871696E0,8.581716567E-2,9.895534515E0
1.903249313E0,-1.114500880E0,-1.378910542E-1,9.648183823E0
1.905744917E0,-1.079336047E0,-4.068646431E-1,9.422605515E0
1.908228560E0,-9.988310337E-1,-6.747907996E-1,9.206678391E0
1.910734664E0,-9.244611263E-1,-9.688286781E-1,9.011101723E0
1.913228927E0,-8.200140595E-1,-1.231592298E0,8.870368004E0
1.915724125E0,-7.083844543E-1,-1.491812110E0,8.757166862E0
1.918219731E0,-5.421370268E-1,-1.785401106E0,8.696713448E0
1.920691614E0,-4.171148241E-1,-2.005592823E0,8.689605713E0
1.923208948E0,-2.395698130E-1,-2.222642183E0,8.646808624E0
1.925680139E0,-6.187514961E-2,-2.416796923E0,8.637231827E0
1.928198735E0,1.900397539E-1,-2.578929424E0,8.618078232E0
1.930694096E0,4.216787815E-1,-2.733804226E0,8.612018585E0
1.933209518E0,6.736685038E-1,-2.891372681E0,8.565405846E0
1.935683639E0,9.424924850E-1,-3.022679567E0,8.533009529E0
1.938133956E0,1.144727707E0,-3.125106573E0,8.495600700E0
1.940647953E0,1.343222022E0,-3.247659683E0,8.456994057E0
1.943168990E0,1.524956822E0,-3.376048803E0,8.463876724E0
1.945630620E0,1.675941229E0,-3.460294724E0,8.432229042E0
1.948158126E0,1.791311741E0,-3.519401789E0,8.398111343E0
1.950628097E0,1.850717902E0,-3.560178041E0,8.404321671E0
1.953147913E0,1.963619471E0,-3.634847164E0,8.373795509E0
1.955643599E0,2.054075480E0,-3.669862270E0,8.349030495E0
1.958141443E0,2.103006840E0,-3.669263840E0,8.287005424E0
1.960607345E0,2.156726837E0,-3.667093992E0,8.272714615E0
1.963082117E0,2.266485929E0,-3.674949884E0,8.220417023E0
1.965596969E0,2.326640368E0,-3.614271879E0,8.214206696E0
1.968117477E0,2.453907013E0,-3.505859375E0,8.228198051E0
1.970612960E0,2.657788277E0,-3.360636234E0,8.255282402E0
1.973112553E0,2.857404947E0,-3.146280289E0,8.266505241E0
1.975602869E0,3.030460835E0,-2.806453228E0,8.263886452E0
1.978097458E0,3.236960649E0,-2.464306831E0,8.255356789E0
1.980592818E0,3.419892788E0,-2.074501038E0,8.228647232E0
1.983097905E0,3.600205898E0,-1.714323282E0,8.237849236E0
1.985582443E0,3.792789698E0,-1.307308912E0,8.297105789E0
1.988051558E0,3.955221176E0,-9.537901282E-1,8.382848740E0
1.990571822E0,4.111592293E0,-5.987000465E-1,8.524704933E0
1.993067632E0,4.245143890E0,-2.730138004E-1,8.727538109E0
1.995536381E0,4.352509022E0,6.367079914E-2,8.962544441E0
1.998057215E0,4.433537960E0,3.972130120E-1,9.260921478E0
2.000525965E0,4.402113914E0,6.989572644E-1,9.566331863E0
2.003046513E0,4.301407814E0,9.845406413E-1,9.923143387E0
2.005542159E0,4.103437424E0,1.188272238E0,1.033636761E1
2.008022872E0,3.785756588E0,1.339480996E0,1.068038368E1
2.010531824E0,3.399766445E0,1.455001235E0,1.101609612E1
2.013005945E0,2.968136787E0,1.521440387E0,1.130063248E1
2.015521082E0,2.513462782E0,1.546953559E0,1.151842976E1
2.018016647E0,2.077792883E0,1.543586731E0,1.172440529E1
2.020475590E0,1.696890473E0,1.531166792E0,1.187696171E1
2.023006311E0,1.325415134E0,1.492111444E0,1.193150425E1
2.025480229E0,1.006163239E0,1.416993260E0,1.197445011E1
2.027970463E0,6.930465698E-1,1.352200270E0,1.195754147E1
2.030465784E0,4.587140679E-1,1.298779607E0,1.187740993E1
2.032960495E0,2.204910070E-1,1.196053386E0,1.175216389E1
2.035456588E0,5.177461356E-2,1.131260276E0,1.160529423E1
2.037950077E0,-1.097591817E-1,1.069759250E0,1.142857170E1
2.040446538E0,-2.452560365E-1,9.769839048E-1,1.121257019E1
2.042939946E0,-3.043628931E-1,8.802432418E-1,1.098482227E1
2.045436080E0,-3.574094176E-1,7.962965369E-1,1.070440102E1
2.047930180E0,-4.104559422E-1,7.200561762E-1,1.049805069E1
2.050425990E0,-4.504840076E-1,6.231657863E-1,1.025601196E1
2.052950240E0,-4.677671492E-1,5.359270573E-1,1.004255390E1
2.055441004E0,-4.801122546E-1,4.723311067E-1,9.790788651E0
2.057935145E0,-4.781669676E-1,4.054431021E-1,9.583315849E0
2.060430750E0,-5.048024654E-1,3.399018347E-1,9.396044731E0
2.062910771E0,-5.158756375E-1,2.935889959E-1,9.231368065E0
2.065419723E0,-5.207388401E-1,2.699462473E-1,9.080982208E0
2.067915492E0,-5.354033709E-1,2.227355838E-1,8.956933022E0
2.070385340E0,-5.570259690E-1,1.995417476E-1,8.871041298E0
2.072904708E0,-5.679495335E-1,1.741033494E-1,8.801834106E0
2.075373703E0,-5.991489887E-1,1.464952230E-1,8.758962631E0
2.077888269E0,-5.992985964E-1,1.248725802E-1,8.743549347E0
2.080352828E0,-6.111947894E-1,1.298854351E-1,8.772130966E0
2.082858932E0,-5.907692909E-1,1.490390599E-1,8.794800758E0
2.085379114E0,-5.894973278E-1,1.673696637E-1,8.858022690E0
2.087855433E0,-5.596446395E-1,1.676689386E-1,8.927305222E0
2.090331100E0,-5.404162407E-1,1.909375787E-1,9.035942078E0
2.092863570E0,-4.830302000E-1,2.020855844E-1,9.131560326E0
2.095359420E0,-4.556465149E-1,2.025344968E-1,9.225981712E0
2.097829228E0,-3.959411085E-1,2.067991644E-1,9.364620209E0
2.100323125E0,-3.479822576E-1,2.429366559E-1,9.486500740E0
2.102843307E0,-3.096002042E-1,2.638859153E-1,9.605911255E0
2.105339116E0,-2.688987851E-1,2.884264886E-1,9.740809441E0
2.107808151E0,-2.261024266E-1,2.676268518E-1,9.880721092E0
2.110328577E0,-1.878700107E-1,2.778022289E-1,1.000619221E1
2.112815963E0,-1.448491961E-1,2.794482410E-1,1.010540199E1
2.115318364E0,-1.125274822E-1,2.978536487E-1,1.020685577E1
2.117813399E0,-9.247604012E-2,2.696469724E-1,1.028945637E1
2.120292729E0,-7.930792868E-2,2.783259451E-1,1.035754108E1
2.122803350E0,-5.416881293E-2,2.832639813E-1,1.039697075E1
2.125255619E0,-5.663783476E-2,2.701706886E-1,1.040303040E1
2.127792973E0,-3.284545615E-2,2.570773959E-1,1.042936707E1
2.130288253E0,-4.361936077E-2,2.560299337E-1,1.044732380E1
2.132779261E0,-3.075052798E-2,2.249053270E-1,1.043789673E1
2.135277470E0,-2.708440647E-2,2.353799492E-1,1.039487553E1
2.137727707E0,-3.067570925E-2,2.244564146E-1,1.035784054E1
2.140242803E0,-2.349310368E-2,2.289455384E-1,1.031721401E1
2.142763473E0,-3.187280893E-2,2.250549644E-1,1.026588821E1
2.145257939E0,-2.955342643E-2,2.103904784E-1,1.021336555E1
2.147752406E0,-3.321954980E-2,1.991676539E-1,1.012507915E1
2.150210698E0,-5.835866556E-3,1.865980923E-1,1.004270363E1
2.152747645E0,1.810614951E-2,2.029085904E-1,9.977012634E0
2.155237798E0,1.092354488E-2,1.942296177E-1,9.919701576E0
2.157706547E0,6.135141943E-3,1.865232736E-1,9.827749252E0
2.160227259E0,6.209960673E-3,1.958756298E-1,9.793033600E0
2.162713384E0,9.876081720E-3,2.145055085E-1,9.718887329E0
2.165191452E0,1.698386855E-2,2.038064152E-1,9.724947929E0
2.167686487E0,4.563947022E-2,2.034323215E-1,9.679607391E0
2.170177780E0,5.297171324E-2,2.284966260E-1,9.681852341E0
2.172701584E0,4.578910768E-2,2.249801457E-1,9.693823814E0
2.175150680E0,6.494271755E-2,2.345569432E-1,9.703325272E0
2.177691899E0,4.736030102E-2,2.862567306E-1,9.748440742E0
2.180187546E0,3.778349608E-2,2.785504162E-1,9.780463219E0
2.182659550E0,4.608838260E-2,2.763058543E-1,9.810316086E0
2.185176478E0,6.890811771E-2,2.944119871E-1,9.854459763E0
2.187628260E0,8.693944663E-2,3.137152493E-1,9.903390884E0
2.190144210E0,7.152677327E-2,3.319710195E-1,9.948656082E0
2.192662155E0,8.716390282E-2,3.428197503E-1,9.976115227E0
2.195143600E0,9.801263362E-2,3.586065173E-1,1.002975941E1
2.197651332E0,1.087865382E-1,3.732710183E-1,1.008707142E1
2.200130660E0,1.088613570E-1,3.841197491E-1,1.010255814E1
2.202637415E0,1.066167951E-1,3.996820450E-1,1.010607529E1
2.205136643E0,1.007809266E-1,4.152443707E-1,1.011191082E1
2.207605351E0,1.200093627E-1,4.391115606E-1,1.011542702E1
2.210125900E0,1.189619005E-1,4.629039466E-1,1.010338116E1
2.212611537E0,1.155950502E-1,4.889408648E-1,1.006021118E1
2.215090255E0,1.216553748E-1,4.996399581E-1,1.005661964E1
2.217607956E0,1.087117195E-1,5.306149721E-1,1.003731632E1
2.220105392E0,1.230769306E-1,5.290437341E-1,9.971625328E0
2.222600956E0,1.232265681E-1,5.514145494E-1,9.922544479E0
2.225095138E0,1.197849065E-1,5.761796236E-1,9.872265816E0
2.227590866E0,1.185877994E-1,5.746832490E-1,9.811364174E0
2.230085292E0,1.331774741E-1,6.041618586E-1,9.761085510E0
2.232580449E0,1.665466577E-1,6.049848199E-1,9.710956573E0
2.235072881E0,1.820341498E-1,5.928642154E-1,9.689558983E0
2.237570318E0,2.011129409E-1,5.924900770E-1,9.642946243E0
2.240065027E0,2.311152816E-1,6.100724936E-1,9.605911255E0
2.242559779E0,2.308160067E-1,5.717653036E-1,9.592967987E0
2.245046310E0,2.593967915E-1,5.582979321E-1,9.551218987E0
2.247524988E0,2.667290270E-1,5.868787169E-1,9.540369987E0
2.250043828E0,2.617161870E-1,5.532850623E-1,9.515455246E0
2.252540085E0,2.973299325E-1,5.256769061E-1,9.506102562E0
2.255034348E0,3.210474849E-1,4.992658794E-1,9.496675491E0
2.257528773E0,3.303998411E-1,4.765957892E-1,9.508721352E0
2.259998825E0,3.146878779E-1,4.394856393E-1,9.506627083E0
2.262519211E0,3.013701439E-1,4.121767879E-1,9.516278267E0
2.265015019E0,3.428945839E-1,3.775356710E-1,9.540369987E0
2.267483444E0,3.365349770E-1,3.190273643E-1,9.541866302E0
2.269982142E0,3.327192068E-1,2.904465795E-1,9.555109024E0
2.272486333E0,3.180547357E-1,2.403928190E-1,9.572093010E0
2.274968674E0,3.128174245E-1,1.785176694E-1,9.598653793E0
2.277489344E0,3.196259141E-1,1.212064624E-1,9.608530045E0
2.279983688E0,2.868552804E-1,4.870704189E-2,9.649456024E0
2.282454147E0,2.743605375E-1,-3.007715940E-2,9.654543877E0
2.284948207E0,2.691980600E-1,-9.314940870E-2,9.688286781E0
2.287468064E0,2.674024105E-1,-1.790414006E-1,9.707814217E0
2.289964320E0,2.358288616E-1,-2.540846467E-1,9.722478867E0
2.292458257E0,2.220622003E-1,-3.434931338E-1,9.742006302E0
2.294928309E0,2.273743451E-1,-4.365677238E-1,9.771185875E0
2.297416387E0,1.863736361E-1,-5.019593239E-1,9.791686058E0
2.299943324E0,1.940799803E-1,-5.915174484E-1,9.806500435E0
2.302438889E0,1.829319745E-1,-6.498013139E-1,9.831864357E0
2.304907719E0,1.489642411E-1,-7.238719463E-1,9.811887741E0
2.307402959E0,1.283142418E-1,-7.836521268E-1,9.801338196E0
2.309905767E0,1.268178672E-1,-8.242787719E-1,9.788393974E0
2.312418095E0,1.015291139E-1,-8.599673510E-1,9.800515175E0
2.314913416E0,6.898293644E-2,-9.065794349E-1,9.779191971E0
2.317407679E0,3.898059577E-2,-9.268553257E-1,9.764901161E0
2.319883428E0,1.975216344E-2,-9.435399175E-1,9.768567085E0
2.322374964E0,-6.584054790E-3,-9.543138146E-1,9.751808167E0
2.324891973E0,-2.685995027E-2,-9.555109143E-1,9.732728958E0
2.327387660E0,-4.002805799E-2,-9.553613067E-1,9.747019768E0
2.329882085E0,-8.050503582E-2,-9.434651136E-1,9.724200249E0
2.332366135E0,-9.718962759E-2,-9.457845092E-1,9.721805573E0
2.334848231E0,-8.866028488E-2,-9.171288610E-1,9.726444244E0
2.337341679E0,-1.063175201E-1,-8.847323656E-1,9.742979050E0
2.339862717E0,-1.334767491E-1,-8.357260227E-1,9.735497475E0
2.342332118E0,-1.571943015E-1,-8.127566576E-1,9.765275002E0
2.344847620E0,-1.509843469E-1,-7.793126702E-1,9.766323090E0
2.347321579E0,-1.649754643E-1,-7.310545444E-1,9.838896751E0
2.349841802E0,-1.743278056E-1,-7.021744847E-1,9.869797707E0
2.352337449E0,-1.918354183E-1,-6.398503780E-1,9.902941704E0
2.354807907E0,-1.891419291E-1,-5.942109227E-1,9.948058128E0
2.357331101E0,-1.767220199E-1,-5.293430090E-1,1.001113033E1
2.359796067E0,-1.643020958E-1,-4.525789320E-1,1.007165813E1
2.362316492E0,-1.280149668E-1,-3.855412900E-1,1.011318302E1
2.364812098E0,-1.205330938E-1,-3.375076354E-1,1.016675282E1
2.367260463E0,-1.044470519E-1,-2.607435286E-1,1.022369003E1
2.369800867E0,-8.619125932E-2,-2.044797838E-1,1.025690937E1
2.372270838E0,-5.357026309E-2,-1.445499212E-1,1.030681419E1
2.374791102E0,-3.494038060E-2,-4.526537657E-2,1.034699154E1
2.377285405E0,-3.576338664E-2,1.586158574E-2,1.038492489E1
2.379776128E0,-3.284545615E-2,9.112930298E-2,1.038694477E1
2.382276006E0,-3.711012751E-2,1.617582589E-1,1.041051292E1
2.384739833E0,-2.955342643E-2,2.250549644E-1,1.041021347E1
2.387265955E0,-5.544073135E-2,2.692728639E-1,1.039682102E1
2.389760788E0,-4.803367332E-2,3.109469414E-1,1.037871456E1
2.392231573E0,-7.624036074E-2,3.681833446E-1,1.035327625E1
2.394750575E0,-8.671499044E-2,4.086602926E-1,1.032439613E1
2.397220179E0,-1.211316437E-1,4.408323765E-1,1.028593922E1
2.399740362E0,-1.482908726E-1,4.763713181E-1,1.022840405E1
2.402235885E0,-2.065747082E-1,5.121347308E-1,1.018276405E1
2.404708338E0,-2.207154632E-1,5.319616795E-1,1.009185982E1
2.407225673E0,-2.813935280E-1,5.591957569E-1,1.001876163E1
2.409694830E0,-2.980781198E-1,5.576245189E-1,9.947085381E0
2.412215052E0,-3.348889649E-1,5.859060287E-1,9.865682602E0
2.414710577E0,-3.657891154E-1,6.058078408E-1,9.785476685E0
2.417179652E0,-3.956418335E-1,6.043114662E-1,9.712602615E0
2.419700322E0,-4.110544920E-1,6.115688682E-1,9.648857117E0
2.422171392E0,-4.337994158E-1,5.992237926E-1,9.573664665E0
2.424689703E0,-4.433762133E-1,6.037877202E-1,9.529446602E0
2.427184290E0,-4.349965155E-1,5.987000465E-1,9.482834816E0
2.429661911E0,-4.184615612E-1,5.709422827E-1,9.443629265E0
2.432174892E0,-4.115782380E-1,5.360767245E-1,9.407940865E0
2.434669520E0,-3.901800513E-1,5.190928578E-1,9.381753922E0
2.437159877E0,-3.929483593E-1,4.654477835E-1,9.388038635E0
2.439659755E0,-3.714753687E-1,4.605097473E-1,9.376142502E0
2.442161057E0,-3.323451281E-1,4.222024977E-1,9.389534950E0
2.444649826E0,-3.136404157E-1,3.755155802E-1,9.382576942E0
2.447122890E0,-3.102735877E-1,3.458124995E-1,9.409063339E0
2.449596116E0,-2.747346461E-1,3.028665185E-1,9.437943459E0
2.452134527E0,-2.834136188E-1,2.530371845E-1,9.490765572E0
2.454607305E0,-2.751835585E-1,2.341080308E-1,9.521889687E0
2.457122930E0,-2.554313838E-1,1.672948450E-1,9.541417122E0
2.459593348E0,-2.555062175E-1,1.484405100E-1,9.590423584E0
2.462113693E0,-2.558054924E-1,1.058686078E-1,9.658733368E0
2.464609177E0,-2.621650994E-1,5.835866556E-2,9.700781822E0
2.467078130E0,-2.778770328E-1,3.119944036E-2,9.741482735E0
2.469573329E0,-3.029413223E-1,2.558803000E-2,9.790489197E0
2.472083013E0,-3.175309896E-1,-7.481880486E-3,9.841964722E0
2.474562872E0,-3.306991160E-1,-9.576806799E-3,9.883788109E0
2.477083135E0,-3.691559732E-1,-4.519055784E-2,9.899425507E0
2.479557134E0,-4.085854888E-1,-5.222352594E-2,9.908927917E0
2.482073126E0,-4.109796882E-1,-5.678747222E-2,9.934066772E0
2.484542648E0,-4.288613796E-1,-5.065232888E-2,9.957859039E0
2.487062831E0,-4.358943403E-1,-3.523965552E-2,9.936310768E0
2.489558396E0,-4.453215301E-1,-2.207154781E-2,9.936236382E0
2.492029831E0,-4.510825574E-1,1.496376097E-2,9.936012268E0
2.494547938E0,-4.426280260E-1,2.790741436E-2,9.900174141E0
2.497039231E0,-4.304325879E-1,6.239888072E-2,9.889249802E0
2.499537887E0,-4.337994158E-1,9.292495251E-2,9.888277054E0
2.502033046E0,-4.310311377E-1,1.464204043E-1,9.846229553E0
2.504523606E0,-4.140472710E-1,1.832312495E-1,9.817423820E0
2.507023077E0,-4.222024977E-1,2.177975327E-1,9.795726776E0
2.509491542E0,-4.206313193E-1,2.666542232E-1,9.778742790E0
2.512012213E0,-4.300584793E-1,2.856581807E-1,9.750012398E0
2.514507330E0,-4.345476031E-1,3.239654303E-1,9.771261215E0
2.517002284E0,-4.641758502E-1,3.610007167E-1,9.757943153E0
2.519497483E0,-4.770447016E-1,3.921253383E-1,9.763704300E0
2.521956305E0,-4.804115295E-1,4.304325879E-1,9.774253845E0
2.524486984E0,-5.100398064E-1,4.557961524E-1,9.805153847E0
2.526981980E0,-5.637596846E-1,4.587140679E-1,9.854084969E0
2.529432053E0,-5.814917088E-1,4.850502908E-1,9.858649254E0
2.531971847E0,-6.066308618E-1,4.770447016E-1,9.907655716E0
2.534427373E0,-6.531681418E-1,4.797381759E-1,9.935039520E0
2.536961513E0,-6.650643349E-1,4.813841879E-1,1.000073051E1
2.539457322E0,-6.890063286E-1,4.673930705E-1,1.004614544E1
2.541909510E0,-7.023988962E-1,4.342483282E-1,1.008213329E1
2.544421270E0,-7.239467502E-1,4.225766063E-1,1.011677456E1
2.546915899E0,-7.600094080E-1,3.895066977E-1,1.016585541E1
2.549436040E0,-7.865700722E-1,3.514239192E-1,1.017797565E1
2.551931809E0,-8.179939985E-1,2.943371832E-1,1.019727898E1
2.554428106E0,-8.492682576E-1,2.537853718E-1,1.018912411E1
2.556921717E0,-8.640823364E-1,1.833060682E-1,1.017625523E1
2.559389979E0,-8.979004622E-1,1.307084560E-1,1.015620327E1
2.561910691E0,-9.100211263E-1,1.055693328E-1,1.013480568E1
2.564406581E0,-9.139865041E-1,4.077624902E-2,1.008968925E1
2.566875127E0,-9.216180444E-1,-2.064999007E-2,1.000282478E1
2.569396083E0,-9.433903098E-1,-7.234977931E-2,9.936086655E0
2.571890265E0,-9.318681955E-1,-1.242740303E-1,9.839645386E0
2.574385463E0,-9.403975606E-1,-1.606359631E-1,9.753753662E0
2.576880743E0,-9.573814273E-1,-1.992424726E-1,9.671527863E0
2.579370042E0,-9.337386489E-1,-2.332102060E-1,9.584438324E0
2.581871180E0,-9.341127276E-1,-2.862567306E-1,9.504681587E0
2.584339727E0,-9.211691022E-1,-3.190273643E-1,9.422455788E0
2.586860276E0,-9.356839657E-1,-3.481318951E-1,9.336564064E0
2.589355637E0,-9.157073498E-1,-3.938461840E-1,9.292570114E0
2.591824631E0,-9.051578641E-1,-4.169651866E-1,9.223437309E0
2.594345383E0,-8.981997371E-1,-4.493617415E-1,9.205705643E0
2.596814866E0,-8.829367161E-1,-4.843769372E-1,9.159317970E0
2.599321172E0,-8.687211275E-1,-5.012111664E-1,9.140314102E0
2.601830043E0,-8.831611276E-1,-5.204395652E-1,9.120038033E0
2.604325161E0,-8.642320037E-1,-5.491700172E-1,9.119065285E0
2.606805181E0,-8.812158704E-1,-5.823895931E-1,9.137096405E0
2.609314418E0,-8.729857802E-1,-6.001216173E-1,9.174206734E0
2.611810024E0,-8.803180456E-1,-6.213701367E-1,9.217302322E0
2.614305018E0,-8.601169586E-1,-6.391022205E-1,9.255684853E0
2.616773728E0,-8.316109776E-1,-6.567594409E-1,9.321524620E0
2.619293341E0,-8.387935758E-1,-6.576572657E-1,9.358485222E0
2.621789882E0,-8.390928507E-1,-6.954407692E-1,9.436371803E0
2.624283697E0,-8.307131529E-1,-6.950666904E-1,9.505654335E0
2.626797410E0,-8.414870501E-1,-7.018003464E-1,9.568950653E0
2.629248623E0,-8.295160532E-1,-6.943184733E-1,9.634641647E0
2.631768764E0,-8.185925484E-1,-6.689549088E-1,9.684695244E0
2.634264044E0,-7.924807668E-1,-6.828712225E-1,9.763628960E0
2.636766486E0,-7.851485014E-1,-6.552630663E-1,9.794604301E0
2.639253790E0,-7.754220963E-1,-6.311714053E-1,9.830292702E0
2.641746466E0,-7.429507375E-1,-6.012439132E-1,9.868450165E0
2.644222581E0,-7.583633661E-1,-5.866542459E-1,9.892242432E0
2.646739222E0,-7.413794994E-1,-5.459527969E-1,9.926733971E0
2.649234055E0,-7.066636086E-1,-5.231330991E-1,9.956512451E0
2.651728359E0,-7.064391375E-1,-4.896890521E-1,9.956362724E0
2.654200892E0,-6.941688657E-1,-4.501847327E-1,9.980080605E0
2.656718227E0,-6.795791984E-1,-4.011784196E-1,9.990629196E0
2.659213507E0,-6.899042130E-1,-3.478326201E-1,9.993023872E0
2.661701056E0,-6.705260873E-1,-3.072060049E-1,1.000477028E1
2.664203375E0,-6.737433076E-1,-2.572270334E-1,9.979481697E0
2.666674485E0,-6.520458460E-1,-2.260276079E-1,1.001397324E1
2.669168829E0,-6.553378701E-1,-1.783680320E-1,9.994669914E0
2.671663051E0,-6.456114650E-1,-1.533785462E-1,9.983820915E0
2.674157314E0,-6.477063894E-1,-1.185877994E-1,1.000035572E1
2.676651780E0,-6.509236097E-1,-6.599018723E-2,1.000364780E1
2.679157191E0,-6.447136402E-1,-3.119944036E-2,1.003454781E1
2.681642258E0,-6.588543653E-1,2.319382969E-3,1.003798962E1
2.684133917E0,-6.765116453E-1,3.464110568E-2,1.004614544E1
2.686652186E0,-6.809259057E-1,8.948329091E-2,1.003035831E1
2.689153123E0,-6.783072948E-1,1.254711300E-1,1.005048466E1
2.691647589E0,-6.958897114E-1,1.625812650E-1,1.005744267E1
2.694142218E0,-7.110779285E-1,2.188449949E-1,1.007263088E1
2.696637904E0,-7.228244543E-1,2.391209006E-1,1.005819130E1
2.699111415E0,-7.309048772E-1,2.821417153E-1,1.005557251E1
2.701648281E0,-7.439233661E-1,2.988263071E-1,1.004472351E1
2.704121913E0,-7.245453000E-1,3.368342519E-1,1.001831245E1
2.706617356E0,-7.420529127E-1,3.928735256E-1,9.994071007E0
2.709111741E0,-7.157914639E-1,3.987842202E-1,9.990554810E0
2.711582118E0,-7.095815539E-1,4.332756996E-1,9.972448349E0
2.714076747E0,-6.842927933E-1,4.581155181E-1,9.948506355E0
2.716596523E0,-6.673089266E-1,5.034556985E-1,9.943493843E0
2.719091517E0,-6.541407704E-1,5.021089911E-1,9.936386108E0
2.721586228E0,-6.193500757E-1,5.329343081E-1,9.907580376E0
2.724072434E0,-5.893477201E-1,5.566518903E-1,9.901595116E0
2.726547003E0,-5.401917696E-1,5.850830674E-1,9.891943932E0
2.729046067E0,-5.244798064E-1,6.076782942E-1,9.883488655E0
2.731566331E0,-5.054758191E-1,6.040121913E-1,9.871592522E0
2.734047614E0,-4.528782070E-1,6.085761189E-1,9.863287926E0
2.736530645E0,-4.456208050E-1,6.287024021E-1,9.836952209E0
2.739025600E0,-3.942202628E-1,6.325181723E-1,9.841441154E0
2.741544847E0,-3.702782691E-1,6.466588974E-1,9.816301346E0
2.744041265E0,-3.403507471E-1,6.610241532E-1,9.836577415E0
2.746546637E0,-3.212719262E-1,6.536918879E-1,9.817573547E0
2.749008999E0,-2.783259451E-1,6.570587158E-1,9.808072090E0
2.751499883E0,-2.567781210E-1,6.606500149E-1,9.816451073E0
2.754020514E0,-2.424877435E-1,6.594529152E-1,9.824831009E0
2.756515997E0,-2.115127593E-1,6.485294104E-1,9.818920135E0
2.759010138E0,-2.115875781E-1,6.318448186E-1,9.818995476E0
2.761482631E0,-1.708861440E-1,6.566846371E-1,9.811812401E0
2.763983771E0,-1.423801780E-1,6.352116466E-1,9.829843521E0
2.766495001E0,-1.244984865E-1,6.293009520E-1,9.839495659E0
2.768990850E0,-1.198597252E-1,6.127659678E-1,9.878999710E0
2.771484869E0,-1.162684187E-1,6.126163602E-1,9.853935242E0
2.773965989E0,-1.093102694E-1,5.863549709E-1,9.859995842E0
2.776428350E0,-1.310077310E-1,5.541828871E-1,9.867328644E0
2.778969326E0,-1.357961297E-1,5.554547906E-1,9.868450165E0
2.781465053E0,-1.479915977E-1,5.173720121E-1,9.886556625E0
2.783959398E0,-1.769464761E-1,4.720318317E-1,9.886780739E0
2.786446091E0,-1.950526237E-1,4.410568476E-1,9.880870819E0
2.788924078E0,-2.166752517E-1,4.195090234E-1,9.863063812E0
2.791444627E0,-2.311152816E-1,3.990086913E-1,9.832088470E0
2.793938971E0,-2.338087559E-1,3.606266379E-1,9.792808533E0
2.796434007E0,-2.614917159E-1,3.271078169E-1,9.776273727E0
2.798929775E0,-2.819172442E-1,3.045125306E-1,9.770362854E0
2.801398606E0,-2.940379083E-1,2.743605375E-1,9.723900795E0
2.803918911E0,-3.214963973E-1,2.719663382E-1,9.705944061E0
2.806414476E0,-3.311480284E-1,2.573766708E-1,9.661801338E0
2.808906825E0,-3.360112309E-1,2.464531362E-1,9.620052338E0
2.811403937E0,-3.576338887E-1,2.295440882E-1,9.587804794E0
2.813874762E0,-3.577086926E-1,2.152536958E-1,9.585485458E0
2.816393602E0,-3.602525294E-1,1.947533488E-1,9.553388596E0
2.818889573E0,-3.734954596E-1,1.708861440E-1,9.535431862E0
2.821383470E0,-3.772363961E-1,1.530044526E-1,9.537900925E0
2.823878709E0,-3.521721065E-1,1.540519148E-1,9.523611069E0
2.826358730E0,-3.904793262E-1,1.362450421E-1,9.527276993E0
2.828867194E0,-3.953425586E-1,1.195604503E-1,9.530868530E0
2.831363573E0,-3.716250062E-1,9.935937077E-2,9.563264847E0
2.833857997E0,-3.765630424E-1,8.147767931E-2,9.560945511E0
2.836356655E0,-3.660883904E-1,4.107552394E-2,9.595810890E0
2.838805548E0,-3.840449154E-1,3.284545615E-2,9.619752884E0
2.841342983E0,-3.734206557E-1,1.975216344E-2,9.628207207E0
2.843838873E0,-3.805284202E-1,2.244564146E-2,9.668759346E0
2.846312181E0,-3.687818944E-1,2.244564006E-3,9.701155663E0
2.848831672E0,-3.784334958E-1,-1.309329085E-2,9.719112396E0
2.851301520E0,-3.832219243E-1,-1.646013744E-2,9.759738922E0
2.853777187E0,-3.678840697E-1,-3.808277100E-2,9.750311852E0
2.856312669E0,-3.762637675E-1,-4.496610165E-2,9.783755302E0
2.858808559E0,-3.857657611E-1,-3.778349608E-2,9.790863037E0
2.861277146E0,-4.001309574E-1,-4.361936077E-2,9.802834511E0
2.863797533E0,-3.761889338E-1,-2.932897024E-2,9.810016632E0
2.866266567E0,-3.774608672E-1,-4.122516140E-2,9.816002846E0
2.868779344E0,-3.928735256E-1,-2.805705182E-2,9.812335968E0
2.871257534E0,-3.797802329E-1,-3.770867735E-2,9.807622910E0
2.873751308E0,-3.702034354E-1,-2.790741436E-2,9.845854759E0
2.876247972E0,-3.619733751E-1,-4.706102610E-2,9.847126961E0
2.878742926E0,-3.572597802E-1,-5.663783476E-2,9.847202301E0
2.881237067E0,-3.500023484E-1,-4.706102610E-2,9.857900620E0
2.883731451E0,-3.476829827E-1,-5.663783476E-2,9.854384422E0
2.886231004E0,-3.153612614E-1,-4.115034267E-2,9.866280556E0
2.888721198E0,-3.226934969E-1,-6.150105596E-2,9.850868225E0
2.891222703E0,-2.965069115E-1,-7.459434867E-2,9.876007080E0
2.893706224E0,-3.132663369E-1,-8.282441646E-2,9.879598618E0
2.896207770E0,-2.967313826E-1,-1.090109944E-1,9.903690338E0
2.898703945E0,-2.789244950E-1,-1.236754805E-1,9.901520729E0
2.901222093E0,-2.970306575E-1,-1.509843469E-1,9.911171913E0
2.903719123E0,-2.876034677E-1,-1.712602377E-1,9.926809311E0
2.906211472E0,-2.816928029E-1,-1.747767180E-1,9.938779831E0
2.908706834E0,-2.852841020E-1,-1.809118688E-1,9.917306900E0
2.911175828E0,-2.724152505E-1,-2.192190886E-1,9.905560493E0
2.913690274E0,-2.786252201E-1,-2.455553114E-1,9.894936562E0
2.916191087E0,-2.570773959E-1,-2.469020486E-1,9.879448891E0
2.918686367E0,-2.655319273E-1,-2.588730454E-1,9.867552757E0
2.921180956E0,-2.668786645E-1,-2.841618061E-1,9.836652756E0
2.923676357E0,-2.608931661E-1,-2.820668817E-1,9.787646294E0
2.926171352E0,-2.371755987E-1,-2.965817451E-1,9.769839287E0
2.928682258E0,-2.680757642E-1,-2.835632563E-1,9.736320496E0
2.931160447E0,-2.383727133E-1,-3.029413223E-1,9.699435234E0
2.933655727E0,-2.240075022E-1,-2.947860956E-1,9.679083824E0
2.936150926E0,-1.976712793E-1,-2.831143439E-1,9.646837234E0
2.938645595E0,-1.881692857E-1,-2.904465795E-1,9.619379044E0
2.941140184E0,-1.881692857E-1,-2.941875458E-1,9.595511436E0
2.943640957E0,-1.797895879E-1,-2.859574556E-1,9.575160980E0
2.946130622E0,-1.535281837E-1,-2.896983922E-1,9.563264847E0
2.948601894E0,-1.441010088E-1,-3.087772131E-1,9.578901291E0
2.951119961E0,-1.452232897E-1,-2.968810201E-1,9.575310707E0
2.953614875E0,-1.559972018E-1,-3.003974855E-1,9.578901291E0
2.956110317E0,-1.547252834E-1,-2.954594493E-1,9.607482910E0
2.958604661E0,-1.571194828E-1,-2.941127121E-1,9.621848106E0
2.961074225E0,-1.690904945E-1,-2.963572741E-1,9.645714760E0
2.963594651E0,-1.822586060E-1,-2.994996607E-1,9.705420494E0
2.966089728E0,-1.965489984E-1,-2.909703255E-1,9.732878685E0
2.968558682E0,-2.191442698E-1,-2.870797515E-1,9.765050888E0
2.971079475E0,-2.382978946E-1,-2.880523801E-1,9.794903755E0
2.973574632E0,-2.621650994E-1,-2.913444340E-1,9.829545021E0
2.976069709E0,-2.681505978E-1,-2.850596309E-1,9.878476143E0
2.978538703E0,-2.906710505E-1,-2.694225013E-1,9.920299530E0
2.981036098E0,-3.289034665E-1,-2.668786645E-1,9.922618866E0
2.983520392E0,-3.479074240E-1,-2.607435286E-1,9.948881149E0
2.986049282E0,-3.671358526E-1,-2.784755826E-1,9.963246346E0
2.988544277E0,-3.991583288E-1,-2.508674562E-1,9.977386475E0
2.991039516E0,-4.290110171E-1,-2.483236045E-1,9.982100487E0
2.993534308E0,-4.326023161E-1,-2.494458854E-1,9.996465683E0
2.996021775E0,-4.456956089E-1,-2.481739670E-1,9.995193481E0
2.998522671E0,-4.551227689E-1,-2.329109311E-1,9.943793297E0
3.001019131E0,-4.826560915E-1,-2.364274114E-1,9.947309494E0
3.003513353E0,-4.672434330E-1,-2.508674562E-1,9.929502487E0
3.006009284E0,-4.768950641E-1,-2.638111115E-1,9.958232880E0
3.008503099E0,-4.901379645E-1,-2.819920778E-1,9.909301758E0
3.010998054E0,-4.745756686E-1,-2.750339210E-1,9.889025688E0
3.013492641E0,-4.721066356E-1,-2.702455223E-1,9.891345024E0
3.015988695E0,-4.638765752E-1,-2.881272137E-1,9.899799347E0
3.018482714E0,-4.674678743E-1,-2.930652499E-1,9.862838745E0
3.020977505E0,-4.735282063E-1,-3.061585426E-1,9.874810219E0
3.023473761E0,-4.674678743E-1,-2.919429839E-1,9.853261948E0
3.025968594E0,-4.652981460E-1,-3.182791770E-1,9.852214813E0
3.028477830E0,-4.712836444E-1,-3.243395090E-1,9.829545021E0
3.030957689E0,-4.880430400E-1,-3.289782703E-1,9.843834877E0
3.033459195E0,-4.820575416E-1,-3.290531039E-1,9.837849617E0
3.035922411E0,-4.712836444E-1,-3.208230138E-1,9.815179825E0
3.038417527E0,-4.831798375E-1,-3.133411407E-1,9.868899345E0
3.040912360E0,-4.711340070E-1,-2.978536487E-1,9.868824959E0
3.043407722E0,-4.748001099E-1,-3.098994792E-1,9.846154213E0
3.045902106E0,-4.603601098E-1,-2.990507483E-1,9.874810219E0
3.048397467E0,-4.684405327E-1,-2.549076676E-1,9.859023094E0
3.050917121E0,-4.648492336E-1,-2.511667311E-1,9.881693840E0
3.053412441E0,-4.873696864E-1,-2.297685444E-1,9.856479645E0
3.055907396E0,-4.978443086E-1,-1.984942853E-1,9.882591248E0
3.058402595E0,-4.822071791E-1,-1.716343313E-1,9.890372276E0
3.060896979E0,-4.891653359E-1,-1.465700418E-1,9.883114815E0
3.063370286E0,-5.080944896E-1,-1.167173311E-1,9.866206169E0
3.065886929E0,-5.138555169E-1,-9.666589648E-2,9.827898979E0
3.068356452E0,-5.137059093E-1,-7.152677327E-2,9.828946114E0
3.070876553E0,-5.313631296E-1,-3.920505196E-2,9.834707260E0
3.073372158E0,-5.514145494E-1,3.965396434E-3,9.845256805E0
3.075840787E0,-5.499181747E-1,3.838204592E-2,9.819968224E0
3.078361375E0,-5.508908629E-1,7.414543629E-2,9.807847023E0
3.080856533E0,-5.699696541E-1,7.653963566E-2,9.797073364E0
3.083352017E0,-5.614402890E-1,1.075894386E-1,9.802908897E0
3.085846767E0,-5.838111043E-1,1.470189542E-1,9.782334328E0
3.088341519E0,-5.848585963E-1,1.624316275E-1,9.771559715E0
3.090836717E0,-5.894973278E-1,1.910872161E-1,9.760636330E0
3.093331508E0,-5.785738230E-1,2.138321400E-1,9.773654938E0
3.095825894E0,-5.677999258E-1,2.151040584E-1,9.794005394E0
3.098321052E0,-5.594201684E-1,2.221370190E-1,9.779640198E0
3.100816251E0,-5.808183551E-1,2.389712632E-1,9.786673546E0
3.103310675E0,-5.758803487E-1,2.533364594E-1,9.788992882E0
3.105780362E0,-5.782745481E-1,2.581248581E-1,9.790189743E0
3.108300992E0,-5.746832490E-1,2.559551299E-1,9.834407806E0
3.110795498E0,-5.746832490E-1,2.583493292E-1,9.834407806E0
3.113264126E0,-5.783493519E-1,2.463783175E-1,9.827300072E0
3.115785285E0,-5.772270560E-1,2.345569432E-1,9.844059944E0
3.118280280E0,-5.725134611E-1,2.299181819E-1,9.868001938E0
3.120775845E0,-5.703437328E-1,2.025344968E-1,9.892018318E0
3.123270840E0,-5.763292313E-1,1.966986358E-1,9.914763451E0
3.125765591E0,-5.669020414E-1,1.811363250E-1,9.910049438E0
3.128236619E0,-5.598691106E-1,1.571943015E-1,9.904213905E0
3.130729662E0,-5.326350331E-1,1.283890605E-1,9.898378372E0
3.133250618E0,-5.267992020E-1,1.031751260E-1,9.875857353E0
3.135742194E0,-5.401169658E-1,7.818564773E-2,9.880721092E0
3.138239956E0,-5.247790813E-1,4.997896031E-2,9.862165451E0
3.140730639E0,-5.214122534E-1,1.750759967E-2,9.826477051E0
3.143243211E0,-5.035305619E-1,1.862988248E-2,9.825354576E0
3.145725267E0,-4.977695048E-1,-1.384147815E-2,9.784877777E0
3.148219408E0,-4.774936140E-1,-1.862988248E-2,9.802834511E0
3.150715054E0,-4.729296565E-1,-4.264671728E-2,9.783830643E0
3.153210008E0,-4.467430711E-1,-5.596446618E-2,9.764826775E0
3.155704841E0,-4.540005028E-1,-7.272387296E-2,9.747019768E0
3.158199226E0,-4.446481466E-1,-1.001823768E-1,9.759065628E0
3.160668626E0,-4.232499599E-1,-1.099088192E-1,9.738863945E0
3.163168383E0,-4.162169993E-1,-1.291372478E-1,9.729436874E0
3.165684618E0,-3.901052475E-1,-1.553986520E-1,9.737966537E0
3.168179206E0,-3.901800513E-1,-1.660977453E-1,9.755923271E0
3.170648363E0,-3.855412900E-1,-1.815852374E-1,9.757194519E0
3.173143440E0,-3.630208373E-1,-1.983446479E-1,9.770438194E0
3.175664313E0,-3.535936773E-1,-2.163011581E-1,9.771784782E0
3.178184577E0,-3.155108988E-1,-2.389712632E-1,9.795801163E0
3.180628588E0,-2.846855521E-1,-2.677764893E-1,9.785251617E0
3.183148647E0,-2.644844651E-1,-2.749590874E-1,9.798419952E0
3.185644212E0,-2.454056740E-1,-2.846855521E-1,9.772233963E0
3.188138353E0,-2.240075022E-1,-2.906710505E-1,9.789067268E0
3.190633552E0,-1.989431977E-1,-3.003226817E-1,9.785551071E0
3.193128791E0,-1.797147691E-1,-2.753331959E-1,9.780688286E0
3.195597419E0,-1.426794529E-1,-2.718915343E-1,9.775899887E0
3.198134732E0,-1.188122630E-1,-2.696469724E-1,9.756820679E0
3.200613125E0,-1.270423234E-1,-2.518400848E-1,9.741183281E0
3.203097907E0,-9.703999013E-2,-2.328361124E-1,9.739986420E0
3.205602872E0,-9.913491458E-2,-1.946785301E-1,9.730185509E0
3.208071865E0,-1.001823768E-1,-1.649006456E-1,9.715744972E0
3.210592577E0,-1.001075581E-1,-1.565209329E-1,9.712079048E0
3.213087613E0,-1.034744084E-1,-1.244236678E-1,9.691653252E0
3.215583462E0,-8.417115360E-2,-9.696517140E-2,9.698686600E0
3.218078335E0,-1.173906997E-1,-7.287351787E-2,9.690082550E0
3.220572558E0,-1.244236678E-1,-5.020341650E-2,9.691205025E0
3.223067716E0,-1.421557218E-1,-2.020107768E-2,9.698163033E0
3.225562669E0,-1.408089846E-1,7.481880311E-5,9.689708710E0
3.228046516E0,-1.345990300E-1,3.112462163E-2,9.702727318E0
3.230552050E0,-1.404348910E-1,5.506663769E-2,9.706168175E0
3.233025235E0,-1.497872472E-1,7.541735470E-2,9.712004662E0
3.235545214E0,-1.733551621E-1,1.209820062E-1,9.718962669E0
3.238036832E0,-2.044049650E-1,1.247229427E-1,9.727192879E0
3.240531867E0,-1.992424726E-1,1.819593310E-1,9.722179413E0
3.243027351E0,-2.409165502E-1,1.929576993E-1,9.734001160E0
3.245497403E0,-2.694225013E-1,2.085948288E-1,9.733851433E0
3.248016527E0,-2.789993286E-1,2.134580463E-1,9.751732826E0
3.250511929E0,-2.930652499E-1,2.469768673E-1,9.758766174E0
3.253006843E0,-3.025672436E-1,2.552817464E-1,9.743128777E0
3.255502164E0,-3.083283007E-1,2.792237699E-1,9.747842789E0
3.257996955E0,-3.011456728E-1,2.888005674E-1,9.752555847E0
3.260492317E0,-3.238157928E-1,2.852841020E-1,9.746570587E0
3.262960579E0,-3.392284513E-1,2.998737693E-1,9.779939651E0
3.265481940E0,-3.452139497E-1,3.010708690E-1,9.787047386E0
3.267976976E0,-3.428197503E-1,2.987514734E-1,9.791835785E0
3.270470833E0,-3.164835274E-1,3.166331649E-1,9.801338196E0
3.272940925E0,-3.271826208E-1,3.143137991E-1,9.804929733E0
3.275435228E0,-3.224690557E-1,3.155857027E-1,9.824083328E0
3.277930631E0,-3.093009293E-1,3.193266392E-1,9.853935242E0
3.280405158E0,-2.891746759E-1,2.905962169E-1,9.861268044E0
3.282920417E0,-2.809446156E-1,2.761562169E-1,9.847052574E0
3.285414843E0,-2.558802962E-1,2.763806581E-1,9.897255898E0
3.287933683E0,-2.500444353E-1,2.513163686E-1,9.900921822E0
3.290404670E0,-2.131587714E-1,2.393453568E-1,9.918952942E0
3.292900316E0,-1.977460980E-1,2.228104025E-1,9.954940796E0
3.295400886E0,-1.726817936E-1,2.237830460E-1,9.935862541E0
3.297890225E0,-1.682674885E-1,1.802385002E-1,9.970354080E0
3.300384610E0,-1.420060843E-1,1.765723825E-1,9.977611542E0
3.302879768E0,-1.218798310E-1,1.563712955E-1,1.000641632E1
3.305374111E0,-1.042225957E-1,1.218798310E-1,1.003529644E1
3.307869961E0,-9.711480886E-2,1.135001257E-1,1.004008484E1
3.310365038E0,-8.170213550E-2,9.427168965E-2,1.003544617E1
3.312870165E0,-7.833528519E-2,6.576573104E-2,1.005826569E1
3.315354743E0,-8.559270948E-2,5.618892238E-2,1.005235481E1
3.317850146E0,-8.806172758E-2,4.309562966E-2,1.005243015E1
3.320346199E0,-8.566752821E-2,3.696049005E-2,1.002975941E1
3.322839159E0,-8.349778503E-2,5.835866556E-3,1.002631855E1
3.325334195E0,-7.160159200E-2,1.945288852E-3,9.978583336E0
3.327829150E0,-6.576573104E-2,-2.079962753E-2,9.973870277E0
3.330323981E0,-8.723872155E-2,-1.975216344E-2,9.935637474E0
3.332819506E0,-5.499181896E-2,-1.997661963E-2,9.914164543E0
3.335314338E0,-7.429507375E-2,-4.264671728E-2,9.911845207E0
3.337808804E0,-6.703764945E-2,-3.082534671E-2,9.887978554E0
3.340293179E0,-8.140286058E-2,-3.336918727E-2,9.852065086E0
3.342780606E0,-7.534253597E-2,-2.281973511E-2,9.823410034E0
3.345285489E0,-6.711246818E-2,-4.085106775E-2,9.805603027E0
3.347776781E0,-6.920739263E-2,7.481880020E-4,9.771934509E0
3.350271614E0,-7.040449232E-2,-1.795651275E-3,9.753977776E0
3.352767016E0,-7.025485486E-2,1.361702196E-2,9.732429504E0
3.355261848E0,-7.137713581E-2,2.910451405E-2,9.721581459E0
3.357756802E0,-6.419453025E-2,2.663549408E-2,9.712079048E0
3.360251879E0,-8.910919726E-2,5.656301603E-2,9.716643333E0
3.362746752E0,-7.691372931E-2,8.873510361E-2,9.706991196E0
3.365241747E0,-8.761281520E-2,9.472060204E-2,9.699733734E0
3.367742724E0,-9.816227108E-2,1.270423234E-1,9.703175545E0
3.370231208E0,-8.731354028E-2,1.425298154E-1,9.707889557E0
3.372726366E0,-1.086369008E-1,1.652747393E-1,9.700556755E0
3.375242073E0,-1.120785698E-1,1.868973672E-1,9.717166901E0
3.377737312E0,-1.165676937E-1,2.211643755E-1,9.707664490E0
3.380232225E0,-1.176899746E-1,2.307411879E-1,9.711256027E0
3.382726692E0,-9.599252790E-2,2.642600238E-1,9.739762306E0
3.385202604E0,-1.016787514E-1,3.000982106E-1,9.738415718E0
3.387716519E0,-8.723872155E-2,3.203741014E-1,9.735946655E0
3.390211840E0,-1.062427014E-1,3.409492970E-1,9.771635056E0
3.392705859E0,-9.898527712E-2,3.467851579E-1,9.757269859E0
3.395201382E0,-1.047463268E-1,3.779097795E-1,9.761908531E0
3.397696703E0,-9.038111567E-2,3.911527097E-1,9.785776138E0
3.400182014E0,-1.153705940E-1,3.996072412E-1,9.784503937E0
3.402702318E0,-8.776245266E-2,4.233247936E-1,9.776049614E0
3.405197395E0,-8.873510361E-2,4.459200799E-1,9.761609077E0
3.407692919E0,-9.599252790E-2,4.399345517E-1,9.752032280E0
3.410187752E0,-7.190086693E-2,4.673930705E-1,9.759140015E0
3.412682095E0,-5.753565952E-2,4.697872698E-1,9.767519951E0
3.415177294E0,-6.105214357E-2,4.792892635E-1,9.761459351E0
3.417672005E0,-5.379471928E-2,4.960486591E-1,9.773355484E0
3.420142911E0,-4.309562966E-2,4.922329187E-1,9.743502617E0
3.422661588E0,-3.815758973E-2,5.101146102E-1,9.739836693E0
3.425157356E0,-2.865560167E-2,5.065233111E-1,9.741108894E0
3.427626797E0,9.576806799E-3,5.111620426E-1,9.741108894E0
3.430146695E0,-1.271919697E-3,4.932803810E-1,9.742381096E0
3.432641650E0,2.753331885E-2,5.158008337E-1,9.726743698E0
3.435136482E0,2.850596420E-2,4.836287498E-1,9.731681824E0
3.437605191E0,3.434183076E-2,4.681412578E-1,9.741333008E0
3.440126717E0,3.568856791E-2,4.884171486E-1,9.744850159E0
3.442621631E0,5.229834467E-2,4.788403511E-1,9.752107620E0
3.445116910E0,3.920505196E-2,4.825064540E-1,9.752032280E0
3.447611539E0,4.272153601E-2,4.694131613E-1,9.764078140E0
3.450106331E0,3.426701203E-2,4.551227689E-1,9.771261215E0
3.452575447E0,2.581248619E-2,4.419546723E-1,9.764153481E0
3.455095955E0,3.060089052E-2,4.528034031E-1,9.779640198E0
3.457591479E0,3.284545615E-2,4.324526787E-1,9.786973000E0
3.460060188E0,4.361936077E-2,4.336497784E-1,9.800141335E0
3.462580045E0,3.755903989E-2,4.156932831E-1,9.787122726E0
3.465046394E0,2.783259563E-2,3.895815015E-1,9.806276321E0
3.467545051E0,7.556699216E-3,3.943699002E-1,9.795501709E0
3.470065315E0,2.618658124E-3,3.729717433E-1,9.808745384E0
3.472559781E0,-7.032967638E-3,3.609259129E-1,9.794454575E0
3.475055753E0,-1.668459363E-2,3.468599617E-1,9.829170227E0
3.477550137E0,-1.077390742E-2,3.359364271E-1,9.810091972E0
3.480046028E0,-1.324292831E-2,3.181295395E-1,9.819743156E0
3.482539803E0,-1.930325106E-2,3.038391471E-1,9.824606895E0
3.485009691E0,-7.481880486E-3,2.917933464E-1,9.817499161E0
3.487510465E0,-1.354220323E-2,2.811690569E-1,9.828272820E0
3.490001757E0,2.992752008E-3,2.487725168E-1,9.814131737E0
3.492520027E0,5.162497517E-3,2.213140130E-1,9.817873001E0
3.495015348E0,3.815758973E-3,2.045546025E-1,9.811962128E0
3.497484261E0,2.050035261E-2,1.961749047E-1,9.818022728E0
3.500005338E0,2.641103789E-2,1.853261739E-1,9.809718132E0
3.502492480E0,3.464110568E-2,1.672948450E-1,9.788319588E0
3.504969368E0,5.357026309E-2,1.444751024E-1,9.775300980E0
3.507489347E0,4.765957594E-2,1.539770961E-1,9.766846657E0
3.509984911E0,6.060323119E-2,1.252466738E-1,9.769465446E0
3.512479296E0,5.342062563E-2,1.242740303E-1,9.801712036E0
3.514974007E0,5.095160380E-2,1.075146198E-1,9.788619041E0
3.517470141E0,5.798457190E-2,9.195230901E-2,9.782708168E0
3.519987027E0,4.953004792E-2,7.878419757E-2,9.781585693E0
3.522458992E0,3.269581869E-2,6.209960580E-2,9.779266357E0
3.524954556E0,1.354220323E-2,5.746084079E-2,9.785251617E0
3.527448657E0,1.952770725E-2,5.379471928E-2,9.778069496E0
3.529944506E0,-8.978256374E-4,3.965396434E-2,9.798419952E0
3.532423429E0,2.618658124E-3,2.536357380E-2,9.808072090E0
3.534908292E0,-1.294365339E-2,2.543839253E-2,9.806874275E0
3.537403043E0,-1.653495617E-2,1.571194828E-2,9.784204483E0
3.539923348E0,-1.174655184E-2,2.416647412E-2,9.803283691E0
3.542418586E0,-2.005143836E-2,2.880523913E-2,9.778143883E0
3.544913745E0,-2.483984269E-2,2.888005786E-2,9.782932281E0
3.547383268E0,-1.399111655E-2,4.332008585E-2,9.801936150E0
3.549904060E0,-3.194762766E-2,3.134907782E-2,9.794828415E0
3.552398201E0,-3.075052798E-2,3.239654005E-2,9.772158623E0
3.554892912E0,-4.137479886E-2,5.162497237E-2,9.786374092E0
3.557388313E0,-2.700958773E-2,5.626374111E-2,9.772008896E0
3.559861987E0,-3.666121513E-2,4.556465149E-2,9.773281097E0
3.562377815E0,-4.481646419E-2,7.197568566E-2,9.792210579E0
3.564872811E0,-4.489128292E-2,5.888239667E-2,9.789890289E0
3.567368375E0,-6.165069342E-2,5.895721540E-2,9.804181099E0
3.569833707E0,-7.234977931E-2,5.895721540E-2,9.789890289E0
3.572332406E0,-6.150105596E-2,7.436989248E-2,9.773056984E0
3.574853197E0,-7.347206771E-2,6.980594248E-2,9.805303574E0
3.577347908E0,-6.037877500E-2,6.606500596E-2,9.785101891E0
3.579842863E0,-6.269815564E-2,7.811082900E-2,9.806500435E0
3.582337776E0,-6.973112375E-2,9.008184075E-2,9.801637650E0
3.584820035E0,-7.818564773E-2,8.050503582E-2,9.799318314E0
3.587308927E0,-7.564181089E-2,9.965864569E-2,9.811139107E0
3.589822436E0,-8.282441646E-2,1.019780263E-1,9.786074638E0
3.592317635E0,-9.479542077E-2,8.888474107E-2,9.788469315E0
3.594811775E0,-7.339724898E-2,7.683891058E-2,9.790938377E0
3.597307503E0,-7.212532312E-2,9.225158393E-2,9.771784782E0
3.599782519E0,-6.501753628E-2,7.900865376E-2,9.757493973E0
3.602296761E0,-6.135141850E-2,9.449614584E-2,9.749114037E0
3.604791960E0,-4.810849205E-2,1.087865382E-1,9.743054390E0
3.607287239E0,-4.698620737E-2,1.051204205E-1,9.734748840E0
3.609781949E0,-4.092588648E-2,1.110311002E-1,9.722778320E0
3.612234383E0,-4.227262363E-2,9.554360807E-2,9.740735054E0
3.614751472E0,-4.691138864E-2,1.099088192E-1,9.732280731E0
3.617267179E0,-5.880757794E-2,1.135749444E-1,9.728613853E0
3.619740364E0,-2.902969532E-2,1.087117195E-1,9.731082916E0
3.622256111E0,-5.050269142E-2,1.088613570E-1,9.745373726E0
3.624751188E0,-3.748422116E-2,9.696517140E-2,9.756222725E0
3.627241219E0,-3.157353401E-2,8.993220329E-2,9.783755302E0
3.629741504E0,-3.860650212E-2,1.054945141E-1,9.787197113E0
3.632236295E0,-2.790741436E-2,9.726444632E-2,9.807547569E0
3.634730599E0,-2.439093031E-2,8.910919726E-2,9.850643158E0
3.637200692E0,-2.319382876E-2,8.925883472E-2,9.870919228E0
3.639720466E0,-1.354220323E-2,1.084124446E-1,9.892392159E0
3.642216235E0,-2.207154781E-2,8.851064742E-2,9.944990158E0
3.644710376E0,-3.269581869E-2,1.065419763E-1,9.962797165E0
3.647206021E0,-3.860650212E-2,1.078887135E-1,9.989058495E0
3.649700895E0,-2.671031281E-2,1.031751260E-1,1.000940895E1
3.652170133E0,-4.818331078E-2,1.069908887E-1,1.002848816E1
3.654664680E0,-4.219780490E-2,1.154454127E-1,1.004517269E1
3.657185799E0,-5.401917547E-2,1.321300119E-1,1.004150677E1
3.659680550E0,-5.880757794E-2,1.202338189E-1,1.004397583E1
3.662174487E0,-6.344634295E-2,1.464952230E-1,1.003903770E1
3.664667936E0,-7.908347249E-2,1.297357976E-1,1.001876163E1
3.667139127E0,-7.773673534E-2,1.523310840E-1,1.000432110E1
3.669659717E0,-7.294833660E-2,1.510591656E-1,9.990031242E0
3.672129565E0,-9.307458997E-2,1.700631380E-1,9.962423325E0
3.674624275E0,-9.187749028E-2,1.746270806E-1,9.937283516E0
3.677145190E0,-9.763853997E-2,1.983446479E-1,9.906159401E0
3.679639452E0,-1.121533886E-1,1.790414006E-1,9.860818863E0
3.682135058E0,-1.203086376E-1,1.992424726E-1,9.841590881E0
3.684630013E0,-1.141734943E-1,2.217629254E-1,9.808072090E0
3.687112476E0,-1.345242113E-1,2.192939073E-1,9.782932281E0
3.689619148E0,-1.392377913E-1,2.262520641E-1,9.745897293E0
3.692114429E0,-1.367687732E-1,2.367266864E-1,9.705195427E0
3.694611214E0,-1.533785462E-1,2.473509610E-1,9.680056572E0
3.697104622E0,-1.510591656E-1,2.354547679E-1,9.664494514E0
3.699598966E0,-1.582417637E-1,2.412906438E-1,9.642946243E0
3.702094531E0,-1.604863256E-1,2.567781210E-1,9.626111984E0
3.704562426E0,-1.664718390E-1,2.518400848E-1,9.597456932E0
3.707083748E0,-1.545756459E-1,2.460042238E-1,9.626187325E0
3.709578947E0,-1.759738177E-1,2.649333775E-1,9.593865395E0
3.712074267E0,-1.568950266E-1,2.530371845E-1,9.608230591E0
3.714562630E0,-1.640028208E-1,2.638859153E-1,9.616535187E0
3.717063810E0,-1.831564307E-1,2.579004169E-1,9.605836868E0
3.719533008E0,-1.675941199E-1,2.602946162E-1,9.622521400E0
3.722053719E0,-1.497872472E-1,2.531868219E-1,9.635764122E0
3.724548633E0,-1.487397850E-1,2.283469886E-1,9.672874451E0
3.727017953E0,-1.319803745E-1,2.403180003E-1,9.688361168E0
3.729537646E0,-1.140238568E-1,2.475005984E-1,9.701529503E0
3.732012866E0,-1.164928749E-1,2.323872000E-1,9.769689560E0
3.734502206E0,-1.332522929E-1,2.288707197E-1,9.774477959E0
3.737023282E0,-1.261444986E-1,2.267009765E-1,9.813907623E0
3.739498462E0,-1.129763946E-1,2.254290581E-1,9.803133965E0
3.742013192E0,-9.756372124E-2,2.171241641E-1,9.827150345E0
3.744508308E0,-9.157821536E-2,2.173486203E-1,9.862988472E0
3.747003222E0,-8.813655376E-2,2.006640285E-1,9.873763084E0
3.749498177E0,-8.813655376E-2,2.006640285E-1,9.873763084E0
3.751989836E0,-8.918401599E-2,2.198176384E-1,9.878476143E0
3.754487475E0,-8.207622916E-2,2.151788771E-1,9.908403397E0
3.756982918E0,-8.319851011E-2,2.151040584E-1,9.901221275E0
3.759460742E0,-8.806172758E-2,2.103156596E-1,9.889249802E0
3.761972338E0,-8.439560980E-2,2.210147381E-1,9.888052940E0
3.764467782E0,-7.474398613E-2,2.340332121E-1,9.874884605E0
3.766962736E0,-7.945756614E-2,2.412158251E-1,9.873613358E0
3.769448697E0,-6.748656183E-2,2.472013235E-1,9.877203941E0
3.771944303E0,-8.185177296E-2,2.423381060E-1,9.859248161E0
3.774447233E0,-8.297405392E-2,2.541594803E-1,9.832911491E0
3.776942716E0,-8.768763393E-2,2.535609305E-1,9.826177597E0
3.779436776E0,-8.162731677E-2,2.679261267E-1,9.832088470E0
3.781932259E0,-8.394669741E-2,2.762310207E-1,9.816526413E0
3.784427214E0,-9.487023950E-2,2.558802962E-1,9.801038742E0
3.786914355E0,-9.120412171E-2,2.665793896E-1,9.800964355E0
3.789416512E0,-9.733926505E-2,2.402431816E-1,9.786747932E0
3.791911955E0,-1.079635322E-1,2.572270334E-1,9.818920135E0
3.794406217E0,-8.170213550E-2,2.630629241E-1,9.813010216E0
3.796901904E0,-9.838672727E-2,2.605938911E-1,9.790265083E0
3.799394825E0,-8.409633487E-2,2.642600238E-1,9.820117950E0
3.801890958E0,-6.973112375E-2,2.617909908E-1,9.814207077E0
3.804386239E0,-8.170213550E-2,2.559551299E-1,9.828572273E0
3.806881519E0,-8.177695423E-2,2.523638308E-1,9.828572273E0
3.809376595E0,-7.698854804E-2,2.536357343E-1,9.839345932E0
3.811871346E0,-6.965630502E-2,2.751087248E-1,9.842787743E0
3.814366341E0,-5.903203413E-2,2.608931661E-1,9.865607262E0
3.816861500E0,-8.649053425E-2,2.573766708E-1,9.857227325E0
3.819311002E0,-7.586626709E-2,2.453308553E-1,9.854907990E0
3.821850635E0,-6.853402406E-2,2.632873654E-1,9.858349800E0
3.824345793E0,-8.536825329E-2,2.442833930E-1,9.875184059E0
3.826849943E0,-6.501753628E-2,2.549076676E-1,9.865607262E0
3.829290495E0,-6.142623723E-2,2.584241331E-1,9.848848343E0
3.831830168E0,-5.544073135E-2,2.559551299E-1,9.842937469E0
3.834325773E0,-6.845920533E-2,2.740612626E-1,9.859546661E0
3.836820524E0,-3.853168339E-2,2.917185128E-1,9.835604668E0
3.839315926E0,-3.740940243E-2,2.760813832E-1,9.826103210E0
3.841810717E0,-3.853168339E-2,2.903717756E-1,9.809343338E0
3.844325122E0,-7.556699216E-3,2.770540416E-1,9.799916267E0
3.846799894E0,-5.087678786E-3,2.950105369E-1,9.804554939E0
3.849295460E0,1.039981376E-2,2.876783013E-1,9.787945747E0
3.851767830E0,1.773205586E-2,3.078045547E-1,9.760336876E0
3.854285165E0,2.244564146E-2,3.052607179E-1,9.741258621E0
3.856754485E0,2.483984269E-2,3.018938601E-1,9.721955299E0
3.859249153E0,3.202244639E-2,3.079541922E-1,9.736246109E0
3.861770272E0,1.773205586E-2,3.102735877E-1,9.718289375E0
3.864264291E0,3.194762766E-2,2.935141623E-1,9.720758438E0
3.866734383E0,2.596212551E-2,2.933645248E-1,9.692102432E0
3.869254850E0,3.314473107E-2,2.994248569E-1,9.712378502E0
3.871749724E0,1.638531871E-2,2.947860956E-1,9.726743698E0
3.874244556E0,1.271919627E-2,2.720411718E-1,9.712528229E0
3.876729012E0,1.982698217E-2,2.649333775E-1,9.728090286E0
3.879208342E0,1.503857970E-2,2.638859153E-1,9.748366356E0
3.881718393E0,1.017535757E-2,2.579752207E-1,9.759140015E0
3.884198820E0,1.025017630E-2,2.627636492E-1,9.768716812E0
3.886693937E0,1.952770725E-2,2.234837711E-1,9.789216995E0
3.889214405E0,7.631517947E-3,2.318634689E-1,9.783157349E0
3.891708992E0,1.937806979E-2,2.116623968E-1,9.813158989E0
3.894178923E0,2.693476854E-3,2.067991644E-1,9.792808533E0
3.896700204E0,3.000234067E-2,1.877951920E-1,9.815628052E0
3.899193449E0,1.930325106E-2,1.972971857E-1,9.803657532E0
3.901689054E0,3.838204592E-2,1.913864911E-1,9.826402664E0
3.904184050E0,3.950432688E-2,1.794154942E-1,9.822885513E0
3.906679045E0,5.618892238E-2,1.805377752E-1,9.824083328E0
3.909173633E0,5.386953801E-2,1.877203733E-1,9.825280190E0
3.911642505E0,5.491700023E-2,1.684919447E-1,9.807398796E0
3.914163054E0,5.858312175E-2,1.804629564E-1,9.810989380E0
3.916658781E0,6.449380517E-2,1.721580625E-1,9.815777779E0
3.919152759E0,6.920739263E-2,1.684919447E-1,9.815853119E0
3.921648487E0,6.105214357E-2,1.924339682E-1,9.812111855E0
3.924124276E0,4.189852998E-2,1.805377752E-1,9.807323456E0
3.926637663E0,4.302081093E-2,1.767968386E-1,9.791835785E0
3.929132984E0,4.668693244E-2,1.841290742E-1,9.812111855E0
3.931628263E0,4.661211371E-2,1.779191196E-1,9.779865265E0
3.934122689E0,4.429273307E-2,1.864484549E-1,9.806126595E0
3.936578256E0,5.020341650E-2,1.792658567E-1,9.797821999E0
3.939112273E0,5.267243832E-2,1.887678355E-1,9.798943520E0
3.941607145E0,3.733458370E-2,2.125602216E-1,9.770138741E0
3.944090788E0,5.027823523E-2,1.923591495E-1,9.798943520E0
3.946597014E0,4.803367332E-2,2.030582279E-1,9.789366722E0
3.949092171E0,5.027823523E-2,1.852513552E-1,9.800215721E0
3.951564055E0,5.379471928E-2,1.815852374E-1,9.789442062E0
3.954081755E0,2.895487659E-2,2.067991644E-1,9.800065994E0
3.956577401E0,1.930325106E-2,1.935562491E-1,9.773804665E0
3.959072030E0,2.409165539E-2,1.934814304E-1,9.766622543E0
3.961548064E0,2.775777504E-2,2.065747082E-1,9.770213127E0
3.964061531E0,1.698386855E-2,2.019359469E-1,9.777320862E0
3.966556568E0,-4.563947208E-3,1.982698292E-1,9.758242607E0
3.969051644E0,2.618658124E-3,2.008136660E-1,9.784503937E0
3.971547087E0,-2.117372118E-2,2.066495270E-1,9.752182007E0
3.974041878E0,-1.997661963E-2,2.138321400E-1,9.752182007E0
3.976511483E0,-3.658639640E-2,2.258031517E-1,9.746121407E0
3.978985686E0,-2.813187055E-2,2.342576683E-1,9.769989014E0
3.981504891E0,-5.678747222E-2,2.426373810E-1,9.753154755E0
3.983997852E0,-6.157587469E-2,2.332102060E-1,9.779490471E0
3.986515675E0,-5.327098817E-2,2.298433632E-1,9.820117950E0
3.989010750E0,-6.404489279E-2,2.311901003E-1,9.835604668E0
3.991505664E0,-5.686229095E-2,2.241571397E-1,9.860744476E0
3.993975269E0,-5.925649032E-2,2.278980762E-1,9.888202667E0
3.996478361E0,-3.187280893E-2,2.160018831E-1,9.912219048E0
3.998990934E0,-5.454290658E-2,2.244564146E-1,9.916858673E0
4.001486378E0,-5.095160380E-2,2.208651006E-1,9.913341522E0
4.003979867E0,-2.581248619E-2,2.376993448E-1,9.947908401E0
4.006476083E0,-3.164835274E-2,2.507926226E-1,9.931148529E0
4.008970223E0,-3.292027488E-2,2.435352057E-1,9.919252396E0
4.011439910E0,-2.685995027E-2,2.493710667E-1,9.901295662E0
4.013960905E0,-3.890577704E-2,2.397942692E-1,9.884611130E0
4.016455697E0,-5.080196634E-2,2.406920940E-1,9.868001938E0
4.018924407E0,-3.628711775E-2,2.727145255E-1,9.835604668E0
4.021420418E0,-5.424363166E-2,2.653822899E-1,9.808146477E0
4.023939746E0,-6.007950008E-2,2.760813832E-1,9.785401344E0
4.026435596E0,-6.359598041E-2,2.867056429E-1,9.763854027E0
4.028929046E0,-5.386953801E-2,3.173813522E-1,9.707590103E0
4.031425423E0,-5.738602206E-2,3.173065484E-1,9.699210167E0
4.033920338E0,-6.224924326E-2,3.113210499E-1,9.690830231E0
4.036389535E0,-6.793547422E-2,3.506757319E-1,9.671527863E0
4.038884326E0,-7.279869914E-2,3.386299014E-1,9.662025452E0
4.041379322E0,-5.731120333E-2,3.314473033E-1,9.663297653E0
4.043874317E0,-5.252280086E-2,3.338415027E-1,9.663297653E0
4.046369230E0,-6.441898644E-2,3.375076354E-1,9.672799110E0
4.048864104E0,-5.020341650E-2,3.279308081E-1,9.682451248E0
4.051359262E0,-3.351882473E-2,3.161094487E-1,9.706393242E0
4.053853687E0,-4.795885459E-2,3.066822886E-1,9.725546837E0
4.056354379E0,-3.134907782E-2,2.950105369E-1,9.772233963E0
4.058843393E0,-3.142389655E-2,2.772784829E-1,9.802161217E0
4.061363819E0,-4.339490458E-2,2.763058543E-1,9.830816269E0
4.063859465E0,-2.798223309E-2,2.621650994E-1,9.872714996E0
4.066354053E0,-3.052607179E-2,2.431611121E-1,9.890746117E0
4.068848723E0,-9.127894416E-3,2.242319584E-1,9.936236382E0
4.071343718E0,-1.294365339E-2,1.991676539E-1,9.938705444E0
4.073838754E0,-2.596212551E-2,2.135328650E-1,9.939827919E0
4.076350107E0,-1.885433868E-2,1.993172914E-1,9.963844299E0
4.078823535E0,-1.286883373E-2,2.030582279E-1,9.993697166E0
4.081323373E0,-2.147299610E-2,1.744026244E-1,9.985466957E0
4.083818857E0,-3.344400600E-2,1.648258269E-1,9.980678558E0
4.086312956E0,-3.711012751E-2,1.576432139E-1,9.971177101E0
4.088808318E0,-3.344400600E-2,1.612345278E-1,9.972373962E0
4.091302784E0,-1.563712955E-2,1.515080780E-1,9.954492569E0
4.093776824E0,-2.521393634E-2,1.467196792E-1,9.946112633E0
4.096267627E0,-9.651625529E-3,1.512836218E-1,9.921048164E0
4.098787810E0,-2.633621916E-2,1.583914012E-1,9.898303032E0
4.101283090E0,-1.069908869E-2,1.724573374E-1,9.862390518E0
4.103778410E0,-2.154781483E-2,1.579424888E-1,9.824233055E0
4.106273324E0,-1.668459363E-2,1.734299809E-1,9.826552391E0
4.108768198E0,-1.167173311E-2,1.982698292E-1,9.785850525E0
4.111237069E0,-8.978256374E-4,2.088941038E-1,9.775076866E0
4.113757292E0,-1.047463249E-2,2.062754333E-1,9.733252525E0
4.116252573E0,-1.264437754E-2,2.372504175E-1,9.718737602E0
4.118722095E0,-2.932897024E-2,2.420388311E-1,9.709160805E0
4.121217009E0,-8.903437294E-3,2.549824715E-1,9.679233551E0
4.123713144E0,-2.072480880E-2,2.705447972E-1,9.679159164E0
4.126206471E0,3.292027395E-3,2.893991172E-1,9.656414032E0
4.128727914E0,-2.693476854E-3,2.941127121E-1,9.634865761E0
4.131222502E0,-1.496376062E-4,3.167828023E-1,9.632396698E0
4.133717050E0,-1.346738427E-3,3.155857027E-1,9.638382912E0
4.136212574E0,5.835866556E-3,3.179799020E-1,9.638382912E0
4.138707244E0,1.429039147E-2,3.274070919E-1,9.619229317E0
4.141175872E0,3.666121280E-3,3.501519859E-1,9.633444786E0
4.143688688E0,-7.481880311E-5,3.276315331E-1,9.652672768E0
4.146191456E0,-2.267009765E-2,3.407996595E-1,9.652523041E0
4.148686939E0,3.666121280E-3,3.514987230E-1,9.651326180E0
4.151167123E0,-8.304887451E-3,3.373579979E-1,9.680056572E0
4.153676278E0,-1.541267335E-2,3.481318951E-1,9.681179047E0
4.156171884E0,-1.653495617E-2,3.589057922E-1,9.688286781E0
4.158666432E0,-1.526303589E-2,3.770867586E-1,9.731232643E0
4.161117522E0,-2.498948015E-2,3.437924087E-1,9.748066902E0
4.163647795E0,-2.267009765E-2,3.403507471E-1,9.767220497E0
4.166151499E0,-1.421557274E-2,3.487304449E-1,9.783905029E0
4.168646656E0,-2.738368139E-2,3.489548862E-1,9.816152573E0
4.171120330E0,-8.379706182E-3,3.299509287E-1,9.837775230E0
4.173610849E0,-1.668459363E-2,3.384054601E-1,9.846079826E0
4.176120777E0,-6.060323212E-3,3.291279078E-1,9.885509491E0
4.178600229E0,-7.182605099E-3,3.399018347E-1,9.884237289E0
4.181121306E0,-1.197100803E-2,3.304746449E-1,9.904587746E0
4.183616057E0,-1.204582769E-2,3.246387839E-1,9.933243752E0
4.186085051E0,-3.666121280E-3,3.306991160E-1,9.942820549E0
4.188606251E0,4.713584669E-3,3.282300830E-1,9.938032150E0
4.191061451E0,1.182137057E-2,3.258358836E-1,9.946412086E0
4.193595183E0,-0.000000000E0,3.365349770E-1,9.928455353E0
4.196090463E0,-5.985504016E-3,3.389291763E-1,9.922470093E0
4.198585947E0,2.618658170E-2,3.268833458E-1,9.923741341E0
4.201080738E0,1.122282003E-3,3.316717446E-1,9.912967682E0
4.203575448E0,5.985504016E-3,3.387795389E-1,9.912893295E0
4.206069956E0,-2.469020430E-3,3.303998411E-1,9.897405624E0
4.208565357E0,3.097498417E-2,3.324947655E-1,9.872341156E0
4.211034555E0,1.316810958E-2,3.396773636E-1,9.856779099E0
4.213553720E0,2.379237860E-2,3.323451281E-1,9.835306168E0
4.216049692E0,3.209726512E-2,3.189525604E-1,9.806724548E0
4.218519988E0,3.202244639E-2,3.116203249E-1,9.776947021E0
4.221014007E0,5.005377904E-2,3.211222887E-1,9.768567085E0
4.223534515E0,1.892915741E-2,3.176806271E-1,9.776872635E0
4.226029672E0,4.287117347E-2,3.198503852E-1,9.758990288E0
4.228525115E0,4.631283879E-2,3.066074550E-1,9.747094154E0
4.231019012E0,3.920505196E-2,3.076549172E-1,9.714847565E0
4.233501148E0,4.743511975E-2,2.945616245E-1,9.724498749E0
4.236009042E0,4.982932284E-2,2.933645248E-1,9.729287148E0
4.238504038E0,5.102642253E-2,2.933645248E-1,9.725696564E0
4.240998096E0,3.905541450E-2,2.873790264E-1,9.720908165E0
4.243497730E0,5.334580690E-2,2.802712321E-1,9.735273361E0
4.245988779E0,4.855740443E-2,2.862567306E-1,9.732878685E0
4.248462778E0,3.778349608E-2,2.803460658E-1,9.744850159E0
4.250978647E0,1.975216344E-2,2.614169121E-1,9.758017540E0
4.253473439E0,2.932897024E-2,2.604442537E-1,9.797447205E0
4.255969411E0,2.094926499E-2,2.608931661E-1,9.822287560E0
4.258463144E0,2.454056777E-2,2.633621991E-1,9.835454941E0
4.260959278E0,6.509236060E-3,2.492962480E-1,9.870096207E0
4.263454111E0,-7.781155407E-3,2.528875470E-1,9.868899345E0
4.265948576E0,-2.992752008E-3,2.576759458E-1,9.872490883E0
4.268417612E0,-5.386953708E-3,2.565536797E-1,9.877203941E0
4.270928029E0,1.848024502E-2,2.505681813E-1,9.892841339E0
4.273433725E0,-7.855974138E-3,2.458545864E-1,9.885659218E0
4.275926319E0,-1.137245819E-2,2.457049489E-1,9.853411674E0
4.278423024E0,7.706336677E-3,2.422632873E-1,9.890447617E0
4.280918548E0,1.137245819E-2,2.539350092E-1,9.846229553E0
4.283413339E0,1.967734471E-2,2.527379096E-1,9.851017952E0
4.285931080E0,5.985504249E-4,2.575263083E-1,9.844957352E0
4.288426279E0,1.720832428E-3,2.442085743E-1,9.817573547E0
4.290901905E0,6.733692135E-4,2.680009604E-1,9.804330826E0
4.293393238E0,2.932897024E-2,2.608183622E-1,9.807996750E0
4.295887623E0,2.454056777E-2,2.607435286E-1,9.794828415E0
4.298382821E0,2.925415151E-2,2.581248581E-1,9.763778687E0
4.300877613E0,2.454056777E-2,2.593967915E-1,9.774553299E0
4.303355560E0,1.990180090E-2,2.783259451E-1,9.740959167E0
4.305867644E0,2.947860770E-2,2.806453407E-1,9.729063034E0
4.308362761E0,3.905541450E-2,2.889502048E-1,9.726593971E0
4.310853199E0,3.426701203E-2,2.840870023E-1,9.708712578E0
4.313323903E0,3.082534671E-2,3.114706874E-1,9.697863579E0
4.315845549E0,5.229834467E-2,3.078793883E-1,9.702651978E0
4.318316904E0,3.202244639E-2,3.044376969E-1,9.715820312E0
4.320811777E0,3.441664949E-2,3.079541922E-1,9.701455116E0
4.323306365E0,4.167407379E-2,3.220949471E-1,9.682301521E0
4.325826588E0,1.668459363E-2,3.306242824E-1,9.691728592E0
4.328322234E0,3.097498417E-2,3.329436779E-1,9.692925453E0
4.330816334E0,3.217208385E-2,3.318962157E-1,9.716867447E0
4.333311940E0,2.259527892E-2,3.295768201E-1,9.725247383E0
4.335762054E0,1.675941236E-2,3.425204754E-1,9.721731186E0
4.338301197E0,3.703530878E-2,3.366846144E-1,9.750461578E0
4.340796721E0,2.139817737E-2,3.284545541E-1,9.770736694E0
4.343291188E0,1.556231081E-2,3.440168500E-1,9.768268585E0
4.345783701E0,2.386719733E-2,3.394529223E-1,9.808969498E0
4.348280893E0,1.556231081E-2,3.478326201E-1,9.814880371E0
4.350776173E0,8.454524912E-3,3.492541611E-1,9.839944839E0
4.353271128E0,1.907879487E-2,3.397521973E-1,9.860295296E0
4.355766366E0,1.444002893E-2,3.577086926E-1,9.862614632E0
4.358261280E0,1.084872615E-2,3.529202938E-1,9.857826233E0
4.360729990E0,1.309329085E-2,3.338415027E-1,9.869872093E0
4.363250497E0,1.316810958E-2,3.494786322E-1,9.880571365E0
4.365745818E0,7.107786369E-3,3.315221071E-1,9.868675232E0
4.368215097E0,1.309329085E-2,3.290531039E-1,9.859172821E0
4.370735767E0,1.197100850E-3,3.373579979E-1,9.849521637E0
4.373197804E0,1.077390742E-2,3.446153998E-1,9.863811493E0
4.375700734E0,-7.182605099E-3,3.398270011E-1,9.853112221E0
4.378194834E0,3.516483819E-3,3.348889649E-1,9.832837105E0
4.380715056E0,1.309329085E-2,3.312228322E-1,9.828048706E0
4.383210703E0,3.591302549E-3,3.384054601E-1,9.819668770E0
4.385705739E0,2.035071515E-2,3.466355205E-1,9.816077232E0
4.388200164E0,9.501988068E-3,3.298760951E-1,9.800589561E0
4.390694915E0,1.189618930E-2,3.370586932E-1,9.808969498E0
4.393165496E0,1.309329085E-2,3.347393274E-1,9.812561035E0
4.395695037E0,2.379237860E-2,3.251625299E-1,9.814954758E0
4.398180348E0,2.970306575E-2,3.129670620E-1,9.781585693E0
4.400674041E0,2.139817737E-2,3.274070919E-1,9.799467087E0
4.403170095E0,1.907879487E-2,3.405751884E-1,9.795801163E0
4.405665333E0,2.977788448E-2,3.298012912E-1,9.798270226E0
4.408160044E0,1.900397614E-2,3.274818957E-1,9.804181099E0
4.410648651E0,2.611176297E-2,3.167079985E-1,9.800664902E0
4.413149952E0,-2.394201700E-3,3.407248259E-1,9.804106712E0
4.415644744E0,1.309329085E-2,3.298760951E-1,9.815030098E0
4.418139211E0,1.047463249E-2,3.047369719E-1,9.812785149E0
4.420633269E0,1.780687459E-2,3.189525604E-1,9.799542427E0
4.423129811E0,3.366846126E-3,3.058592677E-1,9.793631554E0
4.425624481E0,3.366846126E-3,3.022679687E-1,9.794828415E0
4.428142058E0,3.366846126E-3,3.057844341E-1,9.784054756E0
4.430613575E0,-2.618658124E-3,3.033902347E-1,9.776872635E0
4.433109385E0,4.563947208E-3,3.069815636E-1,9.781661034E0
4.435603444E0,-1.444002893E-2,3.165583611E-1,9.769689560E0
4.438098968E0,-1.346738450E-2,2.890250385E-1,9.762657166E0
4.440553192E0,-1.930325106E-2,3.020434976E-1,9.741034508E0
4.443085418E0,-2.416647412E-2,2.912696004E-1,9.738714218E0
4.445584075E0,-2.057517134E-2,2.961328328E-1,9.749413490E0
4.448078948E0,-1.705868728E-2,2.900725007E-1,9.733925819E0
4.450572967E0,-3.022679687E-2,2.806453407E-1,9.759065628E0
4.453068491E0,-3.366846219E-2,2.996492982E-1,9.735048294E0
4.455563486E0,-6.284779403E-3,2.947112620E-1,9.725546837E0
4.458058481E0,-1.481412258E-2,2.649333775E-1,9.731681824E0
4.460580047E0,-7.481880486E-3,2.864063680E-1,9.726818085E0
4.463047820E0,-6.434416864E-3,2.733130753E-1,9.736394882E0
4.465543426E0,-1.234510262E-2,2.757072747E-1,9.738789558E0
4.468012949E0,1.032499503E-2,2.803460658E-1,9.726893425E0
4.470507171E0,3.060089052E-2,2.767547667E-1,9.737667084E0
4.473027801E0,2.461538650E-2,2.709188759E-1,9.749638557E0
4.475523203E0,4.863222316E-2,2.875286639E-1,9.749563217E0
4.478018116E0,3.898059577E-2,2.792986035E-1,9.766323090E0
4.480512786E0,2.828150801E-2,2.876034677E-1,9.751957893E0
4.483007212E0,4.504092038E-2,2.947860956E-1,9.759065628E0
4.485476857E0,4.982932284E-2,2.912696004E-1,9.779416084E0
4.487997202E0,3.673603386E-2,3.009212315E-1,9.787720680E0
4.490491750E0,5.820902810E-2,2.947860956E-1,9.773430824E0
4.492990895E0,4.040215537E-2,3.129670620E-1,9.800814629E0
4.495482838E0,3.441664949E-2,3.070563674E-1,9.792359352E0
4.497951507E0,4.750993848E-2,3.036147058E-1,9.825878143E0
4.500446421E0,4.032733664E-2,2.977788448E-1,9.839046478E0
4.502941375E0,3.329436854E-2,3.204489350E-1,9.838896751E0
4.505461598E0,2.244564146E-2,3.002478480E-1,9.846154213E0
4.507957326E0,5.835866556E-3,3.170072734E-1,9.842488289E0
4.510452280E0,1.182137057E-2,3.194014728E-1,9.848473549E0
4.512947153E0,-1.496376062E-4,3.207482100E-1,9.871144295E0
4.515441416E0,1.421557274E-2,3.219453096E-1,9.875932693E0
4.517941009E0,5.835866556E-3,3.232172430E-1,9.878252029E0
4.520433359E0,1.780687459E-2,3.255366087E-1,9.879448891E0
4.522926401E0,4.713584669E-3,3.328688443E-1,9.896133423E0
4.525421396E0,1.541267335E-2,3.293523788E-1,9.916483879E0
4.527915862E0,2.738368139E-2,3.280056417E-1,9.898602486E0
4.530411631E0,4.541501403E-2,3.446902335E-1,9.899724960E0
4.532906830E0,3.464110568E-2,3.457376957E-1,9.871068954E0
4.535377939E0,5.012859777E-2,3.408744633E-1,9.867477417E0
4.537870371E0,5.484218150E-2,3.362357020E-1,9.891419411E0
4.540390757E0,6.082768738E-2,3.337666690E-1,9.873538017E0
4.542885955E0,5.012859777E-2,3.408744633E-1,9.859172821E0
4.545380991E0,5.835866556E-2,3.168576360E-1,9.842563629E0
4.547876190E0,4.758475721E-2,3.167828023E-1,9.825803757E0
4.550345265E0,4.519055784E-2,3.180547357E-1,9.835380554E0
4.552840504E0,4.765957594E-2,3.238157928E-1,9.806650162E0
4.555335134E0,7.025485486E-2,3.176806271E-1,9.790040016E0
4.557855804E0,5.948095024E-2,3.140893281E-1,9.782857895E0
4.560359629E0,6.539163738E-2,3.021183312E-1,9.785326958E0
4.562845876E0,7.728782296E-2,2.996492982E-1,9.780538559E0
4.565317474E0,6.180033088E-2,2.997241318E-1,9.774553299E0
4.567851165E0,5.813420936E-2,2.863315642E-1,9.735198021E0
4.570330454E0,6.292261183E-2,2.873790264E-1,9.718439102E0
4.572825205E0,3.898059577E-2,2.769044042E-1,9.741183281E0
4.575320525E0,4.249707982E-2,2.683750391E-1,9.702951431E0
4.577814544E0,3.538929299E-2,2.720411718E-1,9.716044426E0
4.580310109E0,4.376899824E-2,2.804208696E-1,9.714847565E0
4.582805022E0,3.763385862E-2,2.576759458E-1,9.708936691E0
4.585275400E0,1.631049998E-2,2.780266702E-1,9.701679230E0
4.587794281E0,1.750759967E-2,2.767547667E-1,9.688510895E0
4.590289846E0,5.985504249E-4,2.552817464E-1,9.682600975E0
4.592786997E0,-2.992752008E-3,2.516904473E-1,9.680206299E0
4.595240936E0,2.454056777E-2,2.647837400E-1,9.689783096E0
4.597748993E0,-1.361702196E-2,2.647837400E-1,9.669432640E0
4.600269866E0,-2.790741436E-2,2.742857337E-1,9.649006844E0
4.602764740E0,-1.249474008E-2,2.587982416E-1,9.674221039E0
4.605259532E0,-2.304419130E-2,2.837877274E-1,9.649006844E0
4.607753753E0,-2.304419130E-2,2.791489661E-1,9.669357300E0
4.610248748E0,-2.304419130E-2,2.814683318E-1,9.664568901E0
4.612742645E0,-3.247135878E-2,3.008463979E-1,9.701455116E0
4.615239552E0,-4.204816744E-2,2.950853705E-1,9.731307983E0
4.617708140E0,-3.239654005E-2,3.093757629E-1,9.722928047E0
4.620228648E0,-5.401917547E-2,2.904465795E-1,9.749263763E0
4.622697846E0,-4.571428895E-2,2.881272137E-1,9.760038376E0
4.625192840E0,-3.972878307E-2,2.941127121E-1,9.763628960E0
4.627713307E0,-4.803367332E-2,2.990507483E-1,9.793407440E0
4.630182953E0,-4.676175117E-2,3.075801134E-1,9.823260307E0
4.632703786E0,-4.324526712E-2,2.994248569E-1,9.859098434E0
4.635198618E0,-4.923077300E-2,2.959083617E-1,9.860295296E0
4.637693532E0,-4.077624902E-2,3.114706874E-1,9.867403030E0
4.640188893E0,-5.753565952E-2,3.080290258E-1,9.885359764E0
4.642664601E0,-5.035305396E-2,3.140145242E-1,9.898452759E0
4.645153575E0,-2.895487659E-2,2.972550988E-1,9.899799347E0
4.647672780E0,-5.274725705E-2,3.045125306E-1,9.897330284E0
4.650167856E0,-3.853168339E-2,2.971802950E-1,9.887828827E0
4.652662608E0,-3.022679687E-2,2.864812016E-1,9.897405624E0
4.655158214E0,-2.416647412E-2,2.947860956E-1,9.871068954E0
4.657652842E0,-8.529343642E-3,3.100491166E-1,9.838747025E0
4.660122040E0,-1.451484766E-2,3.113210499E-1,9.839944839E0
4.662617483E0,2.020107582E-3,2.896983922E-1,9.832911491E0
4.665136850E0,1.990180090E-2,2.823661566E-1,9.815030098E0
4.667632700E0,1.997661963E-2,2.905214131E-1,9.780313492E0
4.670127859E0,3.321954980E-2,3.118447661E-1,9.761159897E0
4.672596893E0,3.785831481E-2,2.917185128E-1,9.786374092E0
4.675091441E0,4.264671728E-2,2.951601744E-1,9.763628960E0
4.677586151E0,4.384381697E-2,2.962824702E-1,9.754052162E0
4.680107472E0,3.927987069E-2,3.177554607E-1,9.750386238E0
4.682602345E0,2.850596420E-2,3.189525604E-1,9.749189377E0
4.685096486E0,1.900397614E-2,3.189525604E-1,9.736021042E0
4.687592255E0,2.962824516E-2,3.105728626E-1,9.740809441E0
4.690070973E0,2.850596420E-2,3.201496601E-1,9.747992516E0
4.692581431E0,2.259527892E-2,3.238157928E-1,9.753902435E0
4.695077159E0,2.259527892E-2,3.274818957E-1,9.772981644E0
4.697569427E0,2.027589642E-2,3.381809890E-1,9.764601707E0
4.700066416E0,9.576806799E-3,3.395277262E-1,9.780089378E0
4.702561737E0,4.788403399E-3,3.407248259E-1,9.784877777E0
4.705056894E0,1.436521020E-2,3.479822576E-1,9.795577049E0
4.707551808E0,8.379706182E-3,3.420715630E-1,9.805153847E0
4.710020640E0,-9.726444259E-4,3.659387529E-1,9.791911125E0
4.712541107E0,6.135141943E-3,3.610755503E-1,9.790713310E0
4.715036305E0,-5.686229095E-3,3.755155802E-1,9.795427322E0
4.717505381E0,-5.611410365E-3,3.922001719E-1,9.791761398E0
4.720025727E0,-1.750759967E-2,4.006547034E-1,9.800065994E0
4.722521576E0,-3.538929299E-2,3.948188126E-1,9.809642792E0
4.725016368E0,-3.292027488E-2,4.115034044E-1,9.809568405E0
4.727469005E0,-5.087678507E-2,4.079869390E-1,9.808370590E0
4.730015757E0,-5.671265349E-2,4.174889326E-1,9.802310944E0
4.732500987E0,-5.199906975E-2,4.201824069E-1,9.852438927E0
4.734995819E0,-6.284779310E-2,3.986345828E-1,9.856254578E0
4.737500376E0,-6.292261183E-2,3.879354894E-1,9.870619774E0
4.739985484E0,-3.419219330E-2,4.057423770E-1,9.858649254E0
4.742454885E0,-3.179799020E-2,4.058171809E-1,9.875333786E0
4.744949311E0,-3.426701203E-2,3.867383897E-1,9.882591248E0
4.747470062E0,2.693476854E-3,3.806780577E-1,9.881468773E0
4.749965383E0,2.775777504E-2,3.852420151E-1,9.867178917E0
4.752459687E0,2.521393634E-2,3.649661243E-1,9.862464905E0
4.754955576E0,3.965396434E-2,3.815010786E-1,9.846902847E0
4.757404063E0,4.788403213E-2,3.598784506E-1,9.827898979E0
4.759919119E0,3.613748029E-2,3.859902024E-1,9.794304848E0
4.762439707E0,3.366846219E-2,3.693056107E-1,9.795577049E0
4.764935313E0,5.386953801E-2,3.642179370E-1,9.757419586E0
4.767430146E0,3.000234067E-2,3.593547046E-1,9.732355118E0
4.769924977E0,5.147533491E-2,3.532195687E-1,9.714473724E0
4.772420013E0,4.070143029E-2,3.568108678E-1,9.710882187E0
4.774914317E0,2.513911761E-2,3.519476354E-1,9.686940193E0
4.777383800E0,1.683423109E-2,3.542670310E-1,9.668983459E0
4.779904185E0,2.042553388E-2,3.554641306E-1,9.667860985E0
4.782399587E0,-2.244564006E-3,3.543418646E-1,9.667786598E0
4.784884980E0,1.571194828E-2,3.601777256E-1,9.664195061E0
4.787389374E0,8.454524912E-3,3.471592367E-1,9.672649384E0
4.789884776E0,-3.516483819E-3,3.437175751E-1,9.695320129E0
4.792379649E0,1.092354488E-2,3.641431034E-1,9.723900795E0
4.794850230E0,-1.541267335E-2,3.571849763E-1,9.746570587E0
4.797368540E0,1.309329085E-2,3.333177567E-1,9.763480186E0
4.799864187E0,1.062426995E-2,3.216460347E-1,9.800589561E0
4.802359385E0,-3.815758973E-3,3.099743128E-1,9.844807625E0
4.804853811E0,8.080430329E-3,2.983025610E-1,9.891494751E0
4.807349132E0,2.117372118E-2,2.996492982E-1,9.928529739E0
4.809847179E0,3.658639640E-2,2.866308391E-1,9.954866409E0
4.812337860E0,2.947860770E-2,2.890998423E-1,9.960851669E0
4.814833100E0,2.932897024E-2,2.661304772E-1,9.992275238E0
4.817302542E0,3.651157767E-2,2.709937096E-1,1.000783825E1
4.819823211E0,2.925415151E-2,2.628384531E-1,1.003409958E1
4.822292898E0,4.354454204E-2,2.508674562E-1,1.004853916E1
4.824787405E0,3.374328092E-2,2.172738016E-1,1.000806236E1
4.827307790E0,4.571428895E-2,2.160018831E-1,1.000334835E1
4.829803396E0,4.676175117E-2,1.991676539E-1,9.981875420E0
4.832298391E0,5.267243832E-2,1.955015361E-1,9.971177101E0
4.834792002E0,4.668693244E-2,1.929576993E-1,9.944915771E0
4.837262054E0,5.020341650E-2,1.794903129E-1,9.899575233E0
4.839782929E0,6.337152421E-2,1.804629564E-1,9.860219955E0
4.842277924E0,6.456862390E-2,1.803881377E-1,9.847052574E0
4.844747080E0,6.209960580E-2,1.740285307E-1,9.792135239E0
4.847267304E0,6.696283072E-2,1.845779866E-1,9.758616447E0
4.849762503E0,6.441898644E-2,1.628057212E-1,9.712154388E0
4.852238210E0,5.865794048E-2,1.901145726E-1,9.682151794E0
4.854752655E0,5.386953801E-2,1.888426542E-1,9.660678864E0
4.857247081E0,5.162497237E-2,2.007388473E-1,9.653421402E0
4.859733490E0,6.815993041E-2,1.837549806E-1,9.622446060E0
4.862211517E0,5.880757794E-2,2.064998895E-1,9.624765396E0
4.864731741E0,6.007950008E-2,2.160767019E-1,9.628282547E0
4.867227020E0,6.022913754E-2,2.362777740E-1,9.613842010E0
4.869721771E0,7.818564773E-2,2.481739670E-1,9.613767624E0
4.872217296E0,7.115267962E-2,2.650082111E-1,9.622072220E0
4.874712291E0,8.065467328E-2,2.625391781E-1,9.620875359E0
4.877206472E0,9.636662155E-2,2.840870023E-1,9.637559891E0
4.879676077E0,1.011550203E-1,2.889502048E-1,9.656638145E0
4.882210338E0,1.012298390E-1,3.033902347E-1,9.664943695E0
4.884666066E0,9.427168965E-2,3.261351585E-1,9.679159164E0
4.887160614E0,1.063175201E-1,3.453635871E-1,9.702951431E0
4.889655488E0,9.075520933E-2,3.372083604E-1,9.731681824E0
4.892176646E0,1.170914248E-1,3.562871516E-1,9.739986420E0
4.894663585E0,9.090484679E-2,3.615244627E-1,9.743204117E0
4.897166718E0,1.039981395E-1,3.627215624E-1,9.751583099E0
4.899635264E0,8.626607805E-2,3.797054291E-1,9.790938377E0
4.902155772E0,1.028758511E-1,3.761889338E-1,9.807697296E0
4.904639008E0,7.788637280E-2,3.787327707E-1,9.812411308E0
4.907146210E0,8.289923519E-2,4.146458209E-1,9.832537651E0
4.909641083E0,6.247369945E-2,3.957914710E-1,9.863661766E0
4.912135468E0,6.479308009E-2,3.922749758E-1,9.873238564E0
4.914630952E0,5.177461356E-2,4.065653682E-1,9.867178917E0
4.917125783E0,5.416881293E-2,4.055179060E-1,9.889923096E0
4.919594615E0,4.227262363E-2,4.115782380E-1,9.904213905E0
4.922115164E0,4.100070521E-2,3.972130120E-1,9.892317772E0
4.924610728E0,3.643675894E-2,4.293102920E-1,9.865831375E0
4.927099905E0,3.157353401E-2,4.150947332E-1,9.885060310E0
4.929600597E0,2.094926499E-2,4.353706241E-1,9.872940063E0
4.932094819E0,4.369417951E-2,4.425532222E-1,9.890895844E0
4.934590180E0,3.052607179E-2,4.424035847E-1,9.857452393E0
4.937058849E0,2.813187055E-2,4.376899898E-1,9.858649254E0
4.939579723E0,2.094926499E-2,4.388870895E-1,9.859846115E0
4.942074839E0,2.341828495E-2,4.423287511E-1,9.839495659E0
4.944569835E0,3.060089052E-2,4.469675422E-1,9.819145203E0
4.947064871E0,1.503857970E-2,4.399345517E-1,9.826327324E0
4.949560232E0,1.391629782E-2,4.504840076E-1,9.791686058E0
4.952031261E0,1.623567939E-2,4.469675422E-1,9.804854393E0
4.954549327E0,4.264671821E-3,4.397101104E-1,9.786897659E0
4.957044362E0,2.700958773E-2,4.443488717E-1,9.778593063E0
4.959516653E0,3.890577704E-2,4.370914400E-1,9.767893791E0
4.962034557E0,2.222118527E-2,4.407575727E-1,9.771410942E0
4.964503673E0,4.122516140E-2,4.348468781E-1,9.796549797E0
4.966998546E0,2.334346622E-2,4.300584793E-1,9.785776138E0
4.969518565E0,4.825812951E-2,4.132990539E-1,9.794304848E0
4.972014008E0,5.319616944E-2,4.323030412E-1,9.779865265E0
4.974509735E0,5.551555008E-2,4.312555790E-1,9.782184601E0
4.977003510E0,5.431845039E-2,4.300584793E-1,9.785776138E0
4.979499523E0,5.065232888E-2,4.169651866E-1,9.791835785E0
4.981993907E0,4.698620737E-2,4.063409269E-1,9.806200981E0
4.984486746E0,5.768529698E-2,3.954921961E-1,9.794304848E0
4.986957856E0,6.599018723E-2,3.907786012E-1,9.807473183E0
4.989479014E0,6.000468135E-2,3.859902024E-1,9.805078506E0
4.991977509E0,6.359598041E-2,3.823989034E-1,9.802759171E0
4.994448579E0,8.866028488E-2,3.871124983E-1,9.807547569E0
4.996962698E0,7.668927312E-2,3.776105046E-1,9.808745384E0
4.999457937E0,7.175122947E-2,3.610007167E-1,9.831489563E0
5.001907237E0,7.294833660E-2,3.598036170E-1,9.823184967E0
5.004419241E0,5.753565952E-2,3.729717433E-1,9.825504303E0
5.006943288E0,5.738602206E-2,3.491045237E-1,9.823184967E0
5.009438040E0,6.793547422E-2,3.288286328E-1,9.834033966E0
5.011906871E0,6.673837453E-2,3.229179680E-1,9.842488289E0
5.014428314E0,6.569091231E-2,3.431190252E-1,9.833958626E0
5.016923432E0,4.878186062E-2,3.170072734E-1,9.846004486E0
5.019420055E0,4.399345443E-2,3.121440411E-1,9.836503029E0
5.021912445E0,3.449146822E-2,3.229927719E-1,9.841216087E0
5.024406830E0,4.399345443E-2,3.158101737E-1,9.844807625E0
5.026902273E0,4.863222316E-2,3.003226817E-1,9.849671364E0
5.029398001E0,5.095160380E-2,2.870797515E-1,9.836652756E0
5.031850922E0,5.087678507E-2,2.751835585E-1,9.845031738E0
5.034387055E0,5.214870721E-2,2.822165191E-1,9.824681282E0
5.036882661E0,4.601356387E-2,2.632873654E-1,9.847500801E0
5.039377859E0,4.242226109E-2,2.595464289E-1,9.828422546E0
5.041846772E0,4.953004792E-2,2.536357343E-1,9.834407806E0
5.044341727E0,5.177461356E-2,2.355295867E-1,9.813010216E0
5.046836965E0,4.698620737E-2,2.320879251E-1,9.824980736E0
5.049331635E0,3.733458370E-2,2.176478952E-1,9.810689926E0
5.051826997E0,1.705868728E-2,2.142062336E-1,9.813084602E0
5.054321828E0,6.284779403E-3,2.162263393E-1,9.809642792E0
5.056816417E0,2.775777504E-2,2.089689225E-1,9.796624184E0
5.059320364E0,1.339256577E-2,2.029085904E-1,9.777470589E0
5.061831391E0,1.324292831E-2,1.814355999E-1,9.777620316E0
5.064326345E0,2.050035261E-2,1.943044364E-1,9.738116264E0
5.066821666E0,2.641103789E-2,1.859995425E-1,9.756072998E0
5.069270560E0,9.801262990E-3,1.965489984E-1,9.711854935E0
5.071811249E0,2.050035261E-2,1.964741796E-1,9.705869675E0
5.074306000E0,2.648585662E-2,1.963993609E-1,9.696292877E0
5.076801606E0,3.815758973E-3,1.916109622E-1,9.678410530E0
5.079296804E0,1.930325106E-2,1.891419291E-1,9.672425270E0
5.081791555E0,2.693476854E-3,2.070236355E-1,9.656787872E0
5.084266287E0,5.087678786E-3,2.117372155E-1,9.646014214E0
5.086756399E0,1.227028389E-2,2.152536958E-1,9.649605751E0
5.089276419E0,-4.414309282E-3,2.094178349E-1,9.660379410E0
5.091771495E0,1.002571918E-2,2.273743451E-1,9.667487144E0
