"Time (s)","Gyroscope x (rad/s)","Gyroscope y (rad/s)","Gyroscope z (rad/s)"
2.706881100E-2,5.101091042E-2,2.241615579E-2,1.345635485E-2
2.952994800E-2,4.743032157E-2,8.693338372E-3,1.310662273E-2
3.202539100E-2,3.995271772E-2,-6.345137954E-3,7.594180759E-3
3.452006000E-2,3.365754336E-2,-2.363189124E-2,7.111217361E-3
3.701509600E-2,2.762882784E-2,-4.135164618E-2,3.730474738E-3
3.950980700E-2,1.853579655E-2,-5.770577863E-2,2.198315458E-3
4.200423200E-2,9.992342442E-3,-7.244448364E-2,3.164242022E-3
4.449951200E-2,-1.498851459E-3,-8.876531571E-2,5.662327749E-4
4.699446700E-2,-9.925727732E-3,-1.049862131E-1,-1.765313908E-3
4.948982800E-2,-2.046764828E-2,-1.199913844E-1,-1.981814625E-3
5.198274700E-2,-3.182561323E-2,-1.355294734E-1,-4.563170020E-3
5.447928900E-2,-4.223430157E-2,-1.494521350E-1,-6.911370438E-3
5.697652200E-2,-5.091098696E-2,-1.640742719E-1,-7.794027682E-3
5.946923800E-2,-6.156948581E-2,-1.758652329E-1,-6.161944941E-3
6.196423400E-2,-6.916366518E-2,-1.898212135E-1,-9.825804271E-3
6.445943300E-2,-7.687442750E-2,-2.000300437E-1,-8.993108757E-3
6.695581000E-2,-8.306967467E-2,-2.070579976E-1,-8.043835871E-3
6.944901500E-2,-8.576761186E-2,-2.099724263E-1,-1.042534411E-2
7.194942300E-2,-8.281987160E-2,-2.083903104E-1,-9.093032219E-3
7.443908800E-2,-7.607503980E-2,-2.000467032E-1,-9.659265168E-3
7.692350300E-2,-7.099559903E-2,-1.847417653E-1,-1.010891981E-2
7.943802900E-2,-6.163610145E-2,-1.669387370E-1,-1.002565026E-2
8.193269900E-2,-5.434169248E-2,-1.429904252E-1,-1.302335318E-2
8.442781600E-2,-4.678081721E-2,-1.171602234E-1,-1.323985402E-2
8.692264800E-2,-4.053560272E-2,-8.931489289E-2,-1.332312357E-2
8.941756300E-2,-3.830398247E-2,-6.238552928E-2,-1.340639312E-2
9.191259800E-2,-3.394065797E-2,-3.572262451E-2,-1.310662273E-2
9.440791900E-2,-2.879460156E-2,-1.095826924E-2,-1.423908863E-2
9.690682000E-2,-2.716251835E-2,8.260336705E-3,-1.257369854E-2
9.939742000E-2,-2.316558175E-2,2.170003764E-2,-1.328981575E-2
1.018926600E-1,-2.214969322E-2,3.197549656E-2,-1.145788655E-2
1.043779300E-1,-2.170003764E-2,3.705493733E-2,-1.042534411E-2
1.068988450E-1,-2.168338373E-2,3.852048144E-2,-1.002565026E-2
1.094053960E-1,-1.970157027E-2,3.570597246E-2,-7.627488580E-3
1.118692220E-1,-2.030110918E-2,2.851148508E-2,-6.012059748E-3
1.143838310E-1,-2.319888957E-2,1.720348373E-2,-5.312595516E-3
1.168787030E-1,-2.694601752E-2,-7.827335503E-4,-3.147588111E-3
1.193727220E-1,-3.139261156E-2,-2.155015245E-2,-9.659265052E-4
1.218900560E-1,-3.923660144E-2,-4.736370593E-2,1.648736536E-3
1.243374840E-1,-4.748028144E-2,-7.425975800E-2,1.465543639E-3
1.268585210E-1,-5.692304671E-2,-1.023382470E-1,2.214969369E-3
1.293532720E-1,-6.611600518E-2,-1.312161088E-1,2.847817726E-3
1.318476560E-1,-7.624157518E-2,-1.582287550E-1,1.065849909E-3
1.343169760E-1,-8.673353493E-2,-1.823102981E-1,-8.326952229E-4
1.368121750E-1,-9.734207392E-2,-2.043933719E-1,-3.414050443E-3
1.393324390E-1,-1.079006493E-1,-2.217967063E-1,-5.345903337E-3
1.418279620E-1,-1.177597642E-1,-2.333378643E-1,-8.343606256E-3
1.443221850E-1,-1.271858662E-1,-2.414150089E-1,-1.110815443E-2
1.467940680E-1,-1.384272575E-1,-2.441295981E-1,-1.320654619E-2
1.492903650E-1,-1.488359421E-1,-2.423143089E-1,-1.427239645E-2
1.518075360E-1,-1.577957422E-1,-2.431803197E-1,-1.440562773E-2
1.542763270E-1,-1.702362150E-1,-2.442794740E-1,-1.320654619E-2
1.567719730E-1,-1.779469699E-1,-2.399494648E-1,-1.627086475E-2
1.592663170E-1,-1.801785976E-1,-2.191154212E-1,-1.367285568E-2
1.617631440E-1,-1.772142053E-1,-1.865403950E-1,-5.046132952E-3
1.642817380E-1,-1.688705981E-1,-1.492189914E-1,3.447358264E-3
1.667773030E-1,-1.554642022E-1,-1.121973544E-1,9.159647860E-3
1.692714850E-1,-1.403257996E-1,-7.562538236E-2,8.243682794E-3
1.717411710E-1,-1.226393580E-1,-3.828732669E-2,5.079440773E-3
1.742369390E-1,-1.036205962E-1,-6.661561783E-4,4.429938737E-3
1.767570400E-1,-9.048066288E-2,3.777105734E-2,1.249042805E-3
1.792269700E-1,-8.145424724E-2,7.853981853E-2,2.048430266E-3
1.817212320E-1,-7.256106287E-2,1.195750386E-1,2.714586444E-3
1.842210290E-1,-6.794793159E-2,1.583786309E-1,4.829632584E-3
1.867107350E-1,-6.601607800E-2,1.973154694E-1,2.847817726E-3
1.892310790E-1,-6.529995799E-2,2.344037145E-1,1.948506921E-3
1.917267260E-1,-6.704862416E-2,2.660461366E-1,2.364854561E-3
1.942207850E-1,-6.906374544E-2,2.956734300E-1,-6.328483578E-4
1.966949870E-1,-7.219468057E-2,3.210373223E-1,-4.563170020E-3
1.991855070E-1,-7.404325902E-2,3.407888412E-1,-8.326952346E-3
2.017059740E-1,-7.835662365E-2,3.533625603E-1,-1.127469353E-2
2.042013760E-1,-8.165409416E-2,3.587084413E-1,-1.460547466E-2
2.066955570E-1,-8.608403057E-2,3.563269377E-1,-1.910202950E-2
2.091690680E-1,-9.041404724E-2,3.509976864E-1,-2.266596444E-2
2.116604010E-1,-9.642610699E-2,3.359592259E-1,-2.724578790E-2
2.141807860E-1,-1.015388593E-1,3.160911202E-1,-3.182561323E-2
2.166757000E-1,-1.084335744E-1,2.903774977E-1,-3.663859144E-2
2.191464450E-1,-1.152450219E-1,2.593179643E-1,-4.011925682E-2
2.216472980E-1,-1.219398901E-1,2.266763002E-1,-4.318357632E-2
2.241652840E-1,-1.294674575E-1,1.904207468E-1,-4.784666747E-2
2.266551120E-1,-1.356627047E-1,1.536322683E-1,-5.116079748E-2
2.291508380E-1,-1.418246478E-1,1.197748855E-1,-5.304268748E-2
2.316449790E-1,-1.461213678E-1,8.603407443E-2,-5.639012158E-2
2.341305350E-1,-1.514839232E-1,5.364222825E-2,-5.865505338E-2
2.366097020E-1,-1.531826109E-1,2.576358989E-2,-6.068683043E-2
2.391299650E-1,-1.542151570E-1,-1.199081191E-3,-6.418415159E-2
2.416254890E-1,-1.537654996E-1,-2.589682117E-2,-6.450057030E-2
2.440943610E-1,-1.514006555E-1,-4.726378247E-2,-6.403426081E-2
2.466137290E-1,-1.499850601E-1,-6.916366518E-2,-6.503349543E-2
2.491035980E-1,-1.433068514E-1,-8.641710877E-2,-6.271860749E-2
2.516044520E-1,-1.337141991E-1,-1.042534411E-1,-6.293510646E-2
2.541000570E-1,-1.227392778E-1,-1.187423393E-1,-6.116979197E-2
2.565941170E-1,-1.127136275E-1,-1.334810406E-1,-5.569065735E-2
2.590819100E-1,-1.011724696E-1,-1.443560421E-1,-5.260968581E-2
2.615590830E-1,-8.884858340E-2,-1.563301980E-1,-5.059456453E-2
2.640790610E-1,-7.759054005E-2,-1.680212468E-1,-4.658097029E-2
2.665747490E-1,-7.072913647E-2,-1.796789765E-1,-4.494889081E-2
2.690688490E-1,-6.511677057E-2,-1.946508437E-1,-4.265065119E-2
2.715396330E-1,-6.188591197E-2,-2.094894648E-1,-4.035241157E-2
2.740335290E-1,-6.057025120E-2,-2.264431417E-1,-3.885355964E-2
2.765380460E-1,-6.108652428E-2,-2.405823022E-1,-3.933652490E-2
2.790355640E-1,-6.306833774E-2,-2.544383705E-1,-3.690505400E-2
2.815183110E-1,-6.423410773E-2,-2.660294771E-1,-3.513973951E-2
2.840158700E-1,-6.711523980E-2,-2.748060822E-1,-3.472338989E-2
2.865092780E-1,-7.119544595E-2,-2.829165459E-1,-3.535623848E-2
2.890287280E-1,-7.722415775E-2,-2.847484648E-1,-3.971956298E-2
2.915235200E-1,-8.430206776E-2,-2.847151458E-1,-4.223430157E-2
2.940181490E-1,-9.121343493E-2,-2.802519202E-1,-4.238418862E-2
2.964878750E-1,-9.580991417E-2,-2.705926597E-1,-4.081872106E-2
2.990146900E-1,-1.053692549E-1,-2.647637725E-1,-3.687174618E-2
3.015021580E-1,-1.168937609E-1,-2.529228628E-1,-3.212538362E-2
3.039987390E-1,-1.228058934E-1,-2.417647392E-1,-2.594678290E-2
3.064676520E-1,-1.315158904E-1,-2.298072278E-1,-1.975153200E-2
3.089630140E-1,-1.388769150E-1,-2.175666094E-1,-1.289012190E-2
3.114831950E-1,-1.478367150E-1,-2.021450996E-1,-1.189088821E-2
3.139804700E-1,-1.563468575E-1,-1.825934052E-1,-1.194084994E-2
3.164732270E-1,-1.649735868E-1,-1.589115560E-1,-1.149119437E-2
3.189422200E-1,-1.743830442E-1,-1.341471970E-1,-1.117477007E-2
3.214626880E-1,-1.868235022E-1,-1.044199839E-1,-1.179096475E-2
3.239581720E-1,-2.025780976E-1,-7.334379852E-2,-1.029211283E-2
3.264283870E-1,-2.225794345E-1,-3.633882105E-2,-9.209609590E-3
3.289470630E-1,-2.461447120E-1,4.146822263E-3,-8.276990615E-3
3.314056000E-1,-2.682444453E-1,4.476569593E-2,-4.696401302E-3
3.339372980E-1,-2.919429541E-1,8.686676621E-2,-3.230857430E-3
3.364327810E-1,-3.163076043E-1,1.264364421E-1,2.331546712E-4
3.389271250E-1,-3.385905325E-1,1.619925350E-1,2.498085611E-3
3.414222020E-1,-3.603738546E-1,1.931186765E-1,3.597243456E-3
3.439168300E-1,-3.811246157E-1,2.193152755E-1,3.380742623E-3
3.464120290E-1,-3.991108239E-1,2.394665033E-1,3.730474738E-3
3.489073090E-1,-4.174301326E-1,2.534890771E-1,2.881125547E-3
3.513763840E-1,-4.306033552E-1,2.618660033E-1,-7.161179092E-4
3.538975020E-1,-4.412618577E-1,2.644640207E-1,-4.962863866E-3
3.563776460E-1,-4.484063983E-1,2.575692832E-1,-7.177833002E-3
3.588867200E-1,-4.520036280E-1,2.451621294E-1,-1.310662273E-2
3.613820810E-1,-4.613964260E-1,2.082404196E-1,-2.053426392E-2
3.638616550E-1,-4.844620824E-1,1.532658935E-1,-3.360757977E-2
3.663715830E-1,-5.028979778E-1,9.249578416E-2,-5.314261094E-2
3.688197840E-1,-5.176866055E-1,3.650536016E-2,-6.806451082E-2
3.713616550E-1,-5.210673809E-1,-1.382274088E-2,-7.928924263E-2
3.738568130E-1,-5.153883696E-1,-5.325918645E-2,-8.685011417E-2
3.763512380E-1,-5.035308003E-1,-8.660030365E-2,-8.939816058E-2
3.788466400E-1,-4.815809727E-1,-1.147787124E-1,-8.680015057E-2
3.813306490E-1,-4.542185962E-1,-1.348633170E-1,-8.065485954E-2
3.838361410E-1,-4.229259193E-1,-1.480365545E-1,-7.465945184E-2
3.863315440E-1,-3.901010752E-1,-1.550478488E-1,-6.178598851E-2
3.888258470E-1,-3.596410751E-1,-1.559138596E-1,-5.026148632E-2
3.913215350E-1,-3.359259069E-1,-1.486027986E-1,-4.526531324E-2
3.937764490E-1,-3.167073131E-1,-1.353962421E-1,-3.921994567E-2
3.963105480E-1,-3.056324720E-1,-1.237052083E-1,-3.315792605E-2
3.988063160E-1,-2.945909202E-1,-1.116477773E-1,-3.240849823E-2
4.013005780E-1,-2.870133817E-1,-1.003730819E-1,-3.139261156E-2
4.037956550E-1,-2.792859972E-1,-8.894850314E-2,-3.049330041E-2
4.062595230E-1,-2.699598074E-1,-7.647473365E-2,-2.867802419E-2
4.087853200E-1,-2.638478279E-1,-6.356795132E-2,-2.752890438E-2
4.112808850E-1,-2.581188679E-1,-5.106087402E-2,-2.319888957E-2
4.137496760E-1,-2.477601469E-1,-4.286715016E-2,-2.138361335E-2
4.162701010E-1,-2.413816899E-1,-4.609800875E-2,-1.818606444E-2
4.187647710E-1,-2.354695648E-1,-5.895482376E-2,-1.722013764E-2
4.212600520E-1,-2.223296314E-1,-6.788131595E-2,-2.156680636E-2
4.237546810E-1,-2.066249996E-1,-7.614165545E-2,-2.128368989E-2
4.262510990E-1,-1.905206740E-1,-8.188725263E-2,-2.073411085E-2
4.287456880E-1,-1.713187248E-1,-8.788265288E-2,-1.700363681E-2
4.312258720E-1,-1.500183791E-1,-9.750860929E-2,-1.115811616E-2
4.337097990E-1,-1.309663057E-1,-1.051194444E-1,-6.894716527E-3
4.362043870E-1,-1.111648157E-1,-1.182094142E-1,-2.614662983E-3
4.387246110E-1,-9.457752854E-2,-1.307331473E-1,1.249042805E-3
4.412199310E-1,-7.848985493E-2,-1.411251873E-1,4.330015276E-3
4.437143160E-1,-6.253541261E-2,-1.501682550E-1,8.993108757E-3
4.462100030E-1,-4.856278747E-2,-1.586617529E-1,1.392266434E-2
4.487039810E-1,-3.767113388E-2,-1.659561545E-1,1.658728905E-2
4.511931980E-1,-2.636313066E-2,-1.712354422E-1,2.045099437E-2
4.536942150E-1,-1.718682982E-2,-1.787463576E-1,2.669620886E-2
4.561895360E-1,-7.377679925E-3,-1.881558150E-1,3.016022220E-2
4.586586110E-1,5.662327749E-4,-1.969823837E-1,3.920329362E-2
4.611788340E-1,8.576761000E-3,-1.994305104E-1,4.569831491E-2
4.636610120E-1,1.630417258E-2,-2.017454058E-1,5.072779581E-2
4.661433520E-1,2.168338373E-2,-1.997469366E-1,6.038706005E-2
4.686642670E-1,2.531393617E-2,-1.989308894E-1,6.846420467E-2
4.711589370E-1,2.976052836E-2,-1.948173791E-1,7.507580519E-2
4.736534430E-1,3.500650823E-2,-1.921694130E-1,7.957235724E-2
4.761410330E-1,3.728809208E-2,-1.915032566E-1,8.393567801E-2
4.786178810E-1,3.487327695E-2,-1.922859848E-1,8.288648725E-2
4.811386740E-1,2.971056662E-2,-2.026613653E-1,8.067151159E-2
4.836222340E-1,1.806948707E-2,-2.194152027E-1,7.357694954E-2
4.861282160E-1,3.597243456E-3,-2.376012653E-1,6.648238748E-2
4.886230080E-1,-1.100823097E-2,-2.582021356E-1,5.978751928E-2
4.911284600E-1,-2.936083451E-2,-2.790361643E-1,5.204345286E-2
4.936134450E-1,-4.826301709E-2,-3.004031479E-1,4.323353618E-2
4.960828060E-1,-6.311830133E-2,-3.196550608E-1,3.733805567E-2
4.986028650E-1,-7.799023390E-2,-3.386405110E-1,3.157580271E-2
5.010976570E-1,-9.322855622E-2,-3.553610146E-1,2.568032034E-2
5.035673440E-1,-1.044199839E-1,-3.665024936E-1,2.174999937E-2
5.060878910E-1,-1.097658873E-1,-3.662027121E-1,1.592113264E-2
5.085833340E-1,-1.111814678E-1,-3.580756187E-1,1.085834578E-2
5.110763770E-1,-1.074343398E-1,-3.417214751E-1,6.028713658E-3
5.135722670E-1,-9.884092212E-2,-3.201879859E-1,-0.000000000E0
5.160491140E-1,-8.701664954E-2,-2.952071130E-1,-4.313361365E-3
5.185623390E-1,-7.262767851E-2,-2.681278586E-1,-9.575995617E-3
5.210577820E-1,-5.540754274E-2,-2.363855243E-1,-1.457216684E-2
5.235522880E-1,-3.897013888E-2,-2.043767273E-1,-1.878560521E-2
5.260505790E-1,-1.891883649E-2,-1.690537930E-1,-2.314892784E-2
5.285195740E-1,-5.828866852E-4,-1.345135868E-1,-2.246611752E-2
5.310373950E-1,2.163342200E-2,-9.812480956E-2,-2.165007591E-2
5.335323910E-1,4.143491387E-2,-6.318491697E-2,-2.110049687E-2
5.360267760E-1,5.910470709E-2,-2.689605579E-2,-2.281584963E-2
5.385178230E-1,7.715754211E-2,5.795558915E-3,-2.133365162E-2
5.409888110E-1,9.359494597E-2,3.887021542E-2,-2.316558175E-2
5.434864920E-1,1.057189852E-1,6.719850749E-2,-2.324885130E-2
5.459813660E-1,1.151617542E-1,9.301205724E-2,-2.254938707E-2
5.485198580E-1,1.206741929E-1,1.143290550E-1,-2.326550521E-2
5.509746920E-1,1.246045157E-1,1.357626319E-1,-2.493089624E-2
5.535027690E-1,1.259368211E-1,1.522999555E-1,-2.431470156E-2
5.559866140E-1,1.232388988E-1,1.657896191E-1,-2.661293931E-2
5.584560970E-1,1.179762632E-1,1.747827381E-1,-2.769544348E-2
5.609506850E-1,1.124305129E-1,1.821437627E-1,-2.997702919E-2
5.634710700E-1,1.054858342E-1,1.840589494E-1,-3.209207579E-2
5.659663100E-1,9.747530520E-2,1.843920350E-1,-3.422377259E-2
5.684614680E-1,9.021420032E-2,1.780302376E-1,-3.472338989E-2
5.709565440E-1,8.023851365E-2,1.687706709E-1,-3.787098080E-2
5.734254160E-1,6.878062338E-2,1.568464786E-1,-3.928656131E-2
5.759458430E-1,5.892151594E-2,1.444892734E-1,-4.494889081E-2
5.784407160E-1,5.091098696E-2,1.293342263E-1,-4.661427811E-2
5.809302580E-1,4.035241157E-2,1.133964360E-1,-4.881259426E-2
5.834315200E-1,3.139261156E-2,9.637615085E-2,-4.982848465E-2
5.858858250E-1,2.095061168E-2,7.963897288E-2,-5.227660760E-2
5.884204520E-1,1.169104129E-2,5.955436453E-2,-5.340907350E-2
5.909154470E-1,1.798621728E-3,4.256737977E-2,-5.309264734E-2
5.934084900E-1,-7.677450310E-3,2.701263316E-2,-5.449157581E-2
5.959057630E-1,-1.806948707E-2,1.455551293E-2,-5.419180542E-2
5.983631600E-1,-2.549712919E-2,4.746363033E-3,-5.269295350E-2
6.008957940E-1,-3.424042836E-2,-2.381508471E-3,-5.161045119E-2
6.033901380E-1,-4.293376580E-2,-3.513973905E-3,-5.054460093E-2
6.058594580E-1,-4.921228811E-2,-4.246745724E-3,-4.856278747E-2
6.083801290E-1,-5.532427132E-2,-4.663093423E-4,-4.631450772E-2
6.108499370E-1,-5.845520645E-2,8.660030551E-3,-4.210107028E-2
6.133697930E-1,-6.145291030E-2,1.775306277E-2,-4.200114682E-2
6.158648290E-1,-6.253541261E-2,3.057656996E-2,-3.978617862E-2
6.183274350E-1,-6.201914325E-2,4.379976913E-2,-3.638878092E-2
6.208550630E-1,-5.988744274E-2,5.993740261E-2,-3.537289426E-2
6.233245050E-1,-5.509111658E-2,7.244448364E-2,-3.304134682E-2
6.258443210E-1,-4.989510030E-2,8.668357134E-2,-3.229192272E-2
6.283393160E-1,-4.230091721E-2,9.970692545E-2,-3.047664650E-2
6.308257260E-1,-3.299138695E-2,1.112647355E-1,-2.694601752E-2
6.333295510E-1,-2.314892784E-2,1.213236973E-1,-2.578024380E-2
6.357985450E-1,-1.092496142E-2,1.291177273E-1,-2.236619405E-2
6.383190930E-1,-1.998468651E-4,1.338474303E-1,-2.198315412E-2
6.408146580E-1,1.132465526E-2,1.358958632E-1,-2.013457008E-2
6.432836120E-1,2.321554348E-2,1.363288611E-1,-1.921860687E-2
6.458045670E-1,2.972722054E-2,1.325484216E-1,-1.960164681E-2
6.482733170E-1,3.838725016E-2,1.300669909E-1,-2.065084130E-2
6.507938250E-1,4.419946298E-2,1.221397370E-1,-2.181661502E-2
6.532886970E-1,5.131068081E-2,1.108650416E-1,-2.443127893E-2
6.557587910E-1,5.389203504E-2,1.010892019E-1,-2.732905746E-2
6.582532160E-1,5.698966235E-2,8.811581135E-2,-3.019353002E-2
6.607481290E-1,5.712289363E-2,7.354364544E-2,-3.452354297E-2
6.632426370E-1,5.354230478E-2,5.955436453E-2,-3.767113388E-2
6.657378760E-1,5.032810196E-2,4.449923337E-2,-4.106852785E-2
6.682344180E-1,4.205111042E-2,2.892783284E-2,-4.444927350E-2
6.707529310E-1,3.535623848E-2,1.217400469E-2,-4.611466080E-2
6.732229020E-1,2.534724399E-2,-2.298238920E-3,-4.766347632E-2
6.757432070E-1,1.613763347E-2,-1.705359854E-2,-5.106087402E-2
6.782380790E-1,4.130168352E-3,-3.042668477E-2,-4.956202209E-2
6.807330340E-1,-5.595711991E-3,-4.290045798E-2,-5.004498363E-2
6.832283950E-1,-1.598774828E-2,-5.509111658E-2,-5.052794889E-2
6.857020280E-1,-2.526397444E-2,-6.276856363E-2,-5.129402503E-2
6.881944600E-1,-3.493989259E-2,-6.949674338E-2,-5.154383555E-2
6.906877870E-1,-4.168472439E-2,-7.650803775E-2,-5.072779581E-2
6.932081310E-1,-4.773009196E-2,-8.072147518E-2,-5.004498363E-2
6.956953950E-1,-5.069448799E-2,-8.403560519E-2,-5.029479414E-2
6.981980810E-1,-5.270960927E-2,-8.535125852E-2,-4.989510030E-2
7.006929140E-1,-5.310930312E-2,-8.468510956E-2,-4.989510030E-2
7.031874200E-1,-5.069448799E-2,-8.430206776E-2,-4.937882721E-2
7.056568620E-1,-4.761351272E-2,-8.207044005E-2,-5.255972221E-2
7.081772070E-1,-4.116845131E-2,-7.852315903E-2,-5.097760260E-2
7.106722830E-1,-3.487327695E-2,-7.724080980E-2,-5.284284055E-2
7.131414810E-1,-2.588016726E-2,-7.224463671E-2,-5.432503670E-2
7.156623550E-1,-1.821937226E-2,-6.616596133E-2,-5.592381209E-2
7.181565770E-1,-9.209609590E-3,-5.863839760E-2,-5.542419478E-2
7.206517760E-1,1.998468651E-4,-5.137729645E-2,-5.848851427E-2
7.231466900E-1,6.561638322E-3,-4.156814516E-2,-6.012059748E-2
7.256417250E-1,1.493855286E-2,-3.002699092E-2,-6.188591197E-2
7.281363130E-1,2.184992284E-2,-1.715352200E-2,-6.443395466E-2
7.306441670E-1,2.784532867E-2,-4.529862199E-3,-6.579957902E-2
7.331264260E-1,3.290811554E-2,1.090830751E-2,-6.480034441E-2
7.356220720E-1,3.397396579E-2,2.598009072E-2,-6.616596133E-2
7.380973730E-1,3.677182272E-2,4.130168259E-2,-6.594946235E-2
7.406116960E-1,3.757121041E-2,5.570731312E-2,-6.639911979E-2
7.430809750E-1,3.498985246E-2,6.813112646E-2,-6.776473671E-2
7.456011170E-1,3.190888092E-2,8.110451698E-2,-6.594946235E-2
7.480969670E-1,2.611332200E-2,9.249578416E-2,-6.638246775E-2
7.505910660E-1,2.138361335E-2,1.010725498E-1,-6.679881364E-2
7.530863460E-1,1.450555120E-2,1.099324226E-1,-6.708192825E-2
7.555347920E-1,9.209609590E-3,1.153116375E-1,-6.604938954E-2
7.580758880E-1,4.962863866E-3,1.177431047E-1,-6.631585211E-2
7.605712500E-1,-8.993108640E-4,1.207241565E-1,-6.884723902E-2
7.630682390E-1,-3.847052110E-3,1.196749583E-1,-7.042936236E-2
7.655614440E-1,-7.460949477E-3,1.184925362E-1,-7.174502313E-2
7.680512710E-1,-8.976454847E-3,1.148952916E-1,-7.464279979E-2
7.705505800E-1,-8.759954013E-3,1.095493883E-1,-7.729077339E-2
7.730460230E-1,-5.612365901E-3,1.024381667E-1,-7.963897288E-2
7.755212420E-1,-1.998468651E-4,9.436102211E-2,-8.385241032E-2
7.780350360E-1,3.863706021E-3,8.698334545E-2,-8.873200417E-2
7.804898700E-1,1.139127091E-2,7.704096287E-2,-8.936485648E-2
7.830253920E-1,2.095061168E-2,6.987978518E-2,-9.159647673E-2
7.855205100E-1,2.941079624E-2,5.887155235E-2,-9.276224673E-2
7.879947940E-1,4.030244797E-2,5.102756619E-2,-9.512710571E-2
7.905092390E-1,5.011159927E-2,4.348334670E-2,-9.509379417E-2
7.929799410E-1,6.033709645E-2,3.592247143E-2,-9.745865315E-2
7.954745710E-1,6.962997466E-2,2.944410406E-2,-9.452756494E-2
7.979953640E-1,7.880628109E-2,2.444793284E-2,-9.386140853E-2
8.004693210E-1,8.413552493E-2,2.201646194E-2,-9.119678289E-2
8.029843770E-1,8.866538852E-2,1.851914264E-2,-8.628387749E-2
8.054555690E-1,9.426110238E-2,1.568797790E-2,-8.203713596E-2
8.079744070E-1,9.519372135E-2,1.583786309E-2,-7.872300595E-2
8.104701350E-1,9.414452314E-2,1.640409604E-2,-7.091232389E-2
8.129387230E-1,9.121343493E-2,1.685375161E-2,-6.681546569E-2
8.154330260E-1,8.628387749E-2,1.863572001E-2,-6.151952595E-2
8.179541440E-1,7.842323929E-2,1.846918091E-2,-5.317591876E-2
8.204494240E-1,6.801454723E-2,2.096726559E-2,-4.946209863E-2
8.229447050E-1,5.868836120E-2,2.306565829E-2,-4.496554285E-2
8.254385190E-1,4.696401209E-2,2.583020553E-2,-4.125172272E-2
8.279067000E-1,3.455685079E-2,2.794525214E-2,-3.768778592E-2
8.304285100E-1,2.161676809E-2,2.899444848E-2,-3.583920375E-2
8.329245210E-1,9.093032219E-3,3.190888092E-2,-3.450689092E-2
8.354185400E-1,-4.379977006E-3,3.427373618E-2,-3.439031169E-2
8.379254990E-1,-1.545482408E-2,3.690505400E-2,-3.399062157E-2
8.403836690E-1,-2.826167643E-2,3.898679093E-2,-3.703828529E-2
8.429034850E-1,-3.705493733E-2,4.253407195E-2,-3.812078759E-2
8.453990910E-1,-4.171803221E-2,4.403292388E-2,-3.956967965E-2
8.478841970E-1,-4.651435465E-2,4.618127644E-2,-4.381642491E-2
8.504032810E-1,-4.733039811E-2,4.604804516E-2,-4.713055119E-2
8.528632430E-1,-4.624789208E-2,4.802986234E-2,-4.886255786E-2
8.553780540E-1,-4.265065119E-2,4.639777914E-2,-5.164375901E-2
8.578738220E-1,-3.477335349E-2,4.659762606E-2,-5.269295350E-2
8.603686540E-1,-2.543051355E-2,4.449923337E-2,-5.547415838E-2
8.628870060E-1,-1.477201376E-2,4.146822169E-2,-5.718950927E-2
8.653325210E-1,-2.381508471E-3,3.897013888E-2,-5.745597184E-2
8.678527850E-1,1.002565026E-2,3.578924015E-2,-6.035375223E-2
8.703481060E-1,2.403158508E-2,3.369085118E-2,-5.995405838E-2
8.728428160E-1,3.493989259E-2,2.957733534E-2,-6.298507005E-2
8.753120140E-1,4.534858465E-2,2.749559656E-2,-6.245214492E-2
8.778092060E-1,5.440830812E-2,2.409820072E-2,-6.125306338E-2
8.803028990E-1,6.065352261E-2,2.030110918E-2,-6.138629466E-2
8.827969580E-1,6.385107338E-2,2.001799271E-2,-6.216902658E-2
8.853053810E-1,6.343472004E-2,1.682044379E-2,-6.123640761E-2
8.877869490E-1,6.077009812E-2,1.778637059E-2,-5.885490030E-2
8.902844660E-1,5.555742607E-2,1.663725078E-2,-5.645673722E-2
8.928028590E-1,4.726378247E-2,1.537155453E-2,-5.605704337E-2
8.952972030E-1,3.618893400E-2,1.665390469E-2,-5.474138632E-2
8.977917500E-1,2.471439540E-2,1.770310104E-2,-5.036140978E-2
9.002616390E-1,9.242917411E-3,1.998468488E-2,-4.586485401E-2
9.027568380E-1,-6.511676591E-3,2.223296277E-2,-4.454919696E-2
9.052768980E-1,-2.025114745E-2,2.409820072E-2,-4.241749644E-2
9.077724220E-1,-3.545616195E-2,2.716251835E-2,-3.912002221E-2
9.102714050E-1,-4.917898029E-2,2.967725880E-2,-3.780436516E-2
9.127383240E-1,-6.290179491E-2,3.420712054E-2,-3.384073451E-2
9.152310810E-1,-7.424310595E-2,3.590581939E-2,-3.264165297E-2
9.177513040E-1,-8.182063699E-2,4.050229490E-2,-3.212538362E-2
9.202465030E-1,-8.713322878E-2,4.321688414E-2,-3.041003086E-2
9.227411720E-1,-9.137997776E-2,4.699731991E-2,-2.924425714E-2
9.252104110E-1,-9.187959135E-2,5.061121657E-2,-2.911102585E-2
9.277074410E-1,-8.904843032E-2,5.377545953E-2,-2.939414233E-2
9.302262790E-1,-8.473506570E-2,5.815543607E-2,-2.954402752E-2
9.327218040E-1,-7.644142210E-2,5.982082710E-2,-2.822836861E-2
9.352157410E-1,-6.733173877E-2,6.241883710E-2,-2.876129374E-2
9.376860780E-1,-5.622358248E-2,6.393434107E-2,-2.691270970E-2
9.401805030E-1,-4.271726683E-2,6.649903953E-2,-2.744563483E-2
9.426951930E-1,-3.322454169E-2,6.709858030E-2,-2.599674463E-2
9.451955990E-1,-2.078407258E-2,6.779804826E-2,-2.401493117E-2
9.476912860E-1,-1.024215110E-2,6.733173877E-2,-2.296573482E-2
9.501603210E-1,8.493491332E-4,6.631585211E-2,-2.043434046E-2
9.526814400E-1,8.193721063E-3,6.520003825E-2,-1.751990803E-2
9.551757020E-1,1.442228165E-2,6.035375223E-2,-1.605436392E-2
9.576712670E-1,1.935183816E-2,5.845520645E-2,-1.392266434E-2
9.601208520E-1,1.970157027E-2,5.230991542E-2,-1.272358373E-2
9.626600770E-1,1.766979322E-2,4.872932658E-2,-1.125803962E-2
9.651553980E-1,1.547147799E-2,4.035241157E-2,-1.095826924E-2
9.676252870E-1,1.234054379E-2,3.490658477E-2,-1.054192148E-2
9.701453060E-1,6.794793066E-3,2.614662983E-2,-7.860642858E-3
9.726191020E-1,-1.815275638E-3,1.833594963E-2,-9.825804271E-3
9.751350530E-1,-1.057522930E-2,1.027545892E-2,-7.943912409E-3
9.776305770E-1,-2.173334546E-2,2.214969369E-3,-1.017553546E-2
9.800991230E-1,-3.260834515E-2,-5.962098017E-3,-9.609303437E-3
9.826205260E-1,-4.351665452E-2,-1.468874421E-2,-9.043070488E-3
9.851138940E-1,-5.332580209E-2,-2.168338373E-2,-1.022549719E-2
9.876095400E-1,-6.368453056E-2,-3.001033701E-2,-9.792496450E-3
9.901051860E-1,-7.162844390E-2,-3.742132336E-2,-1.149119437E-2
9.925994490E-1,-8.113782108E-2,-3.988610208E-2,-1.200746559E-2
9.950951760E-1,-8.769946545E-2,-4.171803221E-2,-1.492189895E-2
9.975890730E-1,-9.439433366E-2,-4.353330657E-2,-1.410585735E-2
1.000084109E0,-9.865773469E-2,-4.150152951E-2,-1.650401950E-2
1.002579836E0,-1.027878970E-1,-4.026914015E-2,-1.663725078E-2
1.005091514E0,-1.055357978E-1,-3.397396579E-2,-1.758652367E-2
1.007569583E0,-1.069846824E-1,-3.024349175E-2,-2.065084130E-2
1.010027550E0,-1.094494611E-1,-2.288246527E-2,-1.986810938E-2
1.012558881E0,-1.128635108E-1,-1.498851459E-2,-2.174999937E-2
1.015054568E0,-1.122639701E-1,-6.994639989E-3,-2.521401271E-2
1.017543582E0,-1.115311980E-1,1.398927998E-3,-2.669620886E-2
1.020044395E0,-1.129467860E-1,9.009762667E-3,-3.004364483E-2
1.022531659E0,-1.152783260E-1,1.715352200E-2,-3.217534348E-2
1.025033531E0,-1.156114042E-1,2.661293931E-2,-3.434035182E-2
1.027503298E0,-1.155447885E-1,3.354096413E-2,-3.898679093E-2
1.029998415E0,-1.177764162E-1,3.981948644E-2,-3.966960311E-2
1.032493411E0,-1.198415011E-1,4.743032157E-2,-4.261734337E-2
1.034987917E0,-1.245045960E-1,5.052794889E-2,-4.606470093E-2
1.037530357E0,-1.287679970E-1,5.269295350E-2,-4.817974567E-2
1.040002240E0,-1.337308586E-1,5.097760260E-2,-5.082771927E-2
1.042475792E0,-1.398928016E-1,4.862940311E-2,-5.174368247E-2
1.044967450E0,-1.456550509E-1,4.533192888E-2,-5.252641439E-2
1.047462486E0,-1.529328078E-1,3.938648477E-2,-5.449157581E-2
1.049982709E0,-1.606102586E-1,3.222530708E-2,-5.658996850E-2
1.052478436E0,-1.652067304E-1,2.611332200E-2,-5.908805504E-2
1.054972414E0,-1.724844873E-1,1.803617924E-2,-6.065352261E-2
1.057468305E0,-1.804617196E-1,8.343606256E-3,-6.206910312E-2
1.059956464E0,-1.843920350E-1,3.663859097E-4,-6.231891364E-2
1.062457685E0,-1.903707832E-1,-9.875766002E-3,-6.624923646E-2
1.064953087E0,-1.951338053E-1,-2.091730386E-2,-6.899712980E-2
1.067424888E0,-1.980149299E-1,-2.931087278E-2,-7.109551877E-2
1.069905642E0,-2.019785643E-1,-3.863706067E-2,-7.424310595E-2
1.072406944E0,-2.017620504E-1,-4.519869760E-2,-7.779038697E-2
1.074918867E0,-2.004797012E-1,-5.107752606E-2,-7.923927903E-2
1.077427086E0,-1.981148571E-1,-5.457484722E-2,-8.293644339E-2
1.079921430E0,-1.941179186E-1,-5.569065735E-2,-8.703330904E-2
1.082416914E0,-1.864904314E-1,-5.430838466E-2,-9.048066288E-2
1.084911827E0,-1.793958694E-1,-5.129402503E-2,-9.274559468E-2
1.087381065E0,-1.680212468E-1,-4.832963273E-2,-9.409455955E-2
1.089902469E0,-1.591447145E-1,-4.213437811E-2,-9.556010365E-2
1.092393842E0,-1.459881365E-1,-3.437365964E-2,-9.692572802E-2
1.094891929E0,-1.328315437E-1,-2.619659156E-2,-9.747530520E-2
1.097386477E0,-1.210239232E-1,-1.975153200E-2,-9.710891545E-2
1.099881431E0,-1.073344201E-1,-1.159111783E-2,-9.845788777E-2
1.102376996E0,-9.337844700E-2,-4.496554378E-3,-9.662595391E-2
1.104864098E0,-7.928924263E-2,1.132465550E-3,-9.386140853E-2
1.107366906E0,-6.748162210E-2,6.928024348E-3,-9.229593724E-2
1.109829389E0,-5.637346953E-2,9.642611258E-3,-9.111351520E-2
1.112356000E0,-4.499885067E-2,1.157446392E-2,-8.728311211E-2
1.114851728E0,-3.520635515E-2,1.470539812E-2,-8.556776494E-2
1.117330487E0,-2.826167643E-2,1.533824671E-2,-8.080474287E-2
1.119840904E0,-2.194984630E-2,1.715352200E-2,-7.804019749E-2
1.122290489E0,-1.901875995E-2,1.715352200E-2,-7.499253005E-2
1.124830894E0,-1.632082649E-2,1.941845380E-2,-7.062920928E-2
1.127326500E0,-1.417247299E-2,1.926856861E-2,-6.758154929E-2
1.129837649E0,-1.480532158E-2,2.263265662E-2,-6.241883710E-2
1.132316083E0,-1.465543639E-2,2.518070489E-2,-5.912136286E-2
1.134804934E0,-1.648736559E-2,2.869467810E-2,-5.422511324E-2
1.137284386E0,-1.976818591E-2,3.367419541E-2,-4.934551939E-2
1.139801069E0,-2.291577309E-2,4.025248811E-2,-4.538189247E-2
1.142266197E0,-2.593012899E-2,4.789663106E-2,-4.038571939E-2
1.144791059E0,-2.717917226E-2,5.740600824E-2,-3.512308374E-2
1.147283898E0,-2.896114066E-2,6.609934568E-2,-3.422377259E-2
1.149780154E0,-3.019353002E-2,7.800689340E-2,-3.120941855E-2
1.152275434E0,-2.929421887E-2,9.028081596E-2,-2.727909572E-2
1.154744795E0,-2.637978457E-2,1.033374816E-1,-2.704594098E-2
1.157239504E0,-2.171669155E-2,1.165107191E-1,-2.696267143E-2
1.159738772E0,-1.613763347E-2,1.298005283E-1,-2.859475464E-2
1.162229251E0,-6.411753129E-3,1.418746114E-1,-2.969391271E-2
1.164724043E0,4.363323096E-3,1.536322683E-1,-3.555608541E-2
1.167245486E0,1.555474754E-2,1.648903042E-1,-3.652201220E-2
1.169739586E0,2.966060489E-2,1.751657724E-1,-4.160145298E-2
1.172223758E0,4.521535337E-2,1.840756088E-1,-5.049464107E-2
1.174729372E0,6.251876056E-2,1.937848330E-1,-5.649004504E-2
1.177225182E0,8.075478673E-2,2.028279006E-1,-6.261868030E-2
1.179705162E0,9.684245288E-2,2.107884735E-1,-7.404325902E-2
1.182214724E0,1.149452478E-1,2.206309289E-1,-8.148755878E-2
1.184668826E0,1.341138929E-1,2.297739238E-1,-9.252909571E-2
1.187178755E0,1.504680365E-1,2.373514473E-1,-9.997338802E-2
1.189699709E0,1.660394371E-1,2.464111745E-1,-1.072844565E-1
1.192168541E0,1.814776063E-1,2.565200925E-1,-1.180428788E-1
1.194689456E0,1.928855330E-1,2.653300166E-1,-1.274856478E-1
1.197158776E0,2.037771791E-1,2.736236453E-1,-1.350631714E-1
1.199639976E0,2.133032084E-1,2.815175951E-1,-1.437065452E-1
1.202173750E0,2.185824960E-1,2.901276648E-1,-1.492855996E-1
1.204668786E0,2.202478945E-1,2.988876402E-1,-1.563468575E-1
1.207151654E0,2.245779037E-1,3.053660095E-1,-1.608600616E-1
1.209658409E0,2.214303166E-1,3.131100535E-1,-1.661893129E-1
1.212153527E0,2.185325325E-1,3.187224269E-1,-1.717683673E-1
1.214649050E0,2.090897709E-1,3.250509202E-1,-1.770809740E-1
1.217123619E0,2.039104104E-1,3.300137818E-1,-1.806782186E-1
1.219612796E0,1.942011863E-1,3.350099623E-1,-1.842588037E-1
1.222133140E0,1.811445206E-1,3.389735818E-1,-1.873231232E-1
1.224628624E0,1.691370606E-1,3.414550126E-1,-1.923526078E-1
1.227122765E0,1.552477032E-1,3.440863192E-1,-1.951504499E-1
1.229618778E0,1.421743780E-1,3.451188803E-1,-1.963328868E-1
1.232087527E0,1.300170422E-1,3.461347520E-1,-2.001799345E-1
1.234607303E0,1.141292080E-1,3.475836515E-1,-2.048097253E-1
1.237103234E0,1.006395444E-1,3.490158916E-1,-2.062752694E-1
1.239597659E0,8.595079929E-2,3.504481316E-1,-2.102555484E-1
1.242088382E0,7.354364544E-2,3.521301746E-1,-2.146188766E-1
1.244562178E0,6.151952595E-2,3.544783592E-1,-2.185991555E-1
1.247082441E0,4.962863773E-2,3.545616269E-1,-2.224462032E-1
1.249577029E0,3.803751990E-2,3.582421541E-1,-2.265597284E-1
1.252072147E0,2.829498425E-2,3.595078290E-1,-2.306732386E-1
1.254542320E0,2.241615579E-2,3.600574136E-1,-2.357027084E-1
1.257036868E0,1.627086475E-2,3.610399961E-1,-2.387503833E-1
1.259557295E0,9.959034622E-3,3.582588136E-1,-2.444293648E-1
1.262052616E0,5.928790197E-3,3.562769890E-1,-2.495920658E-1
1.264546837E0,3.247511340E-3,3.553443551E-1,-2.531726658E-1
1.267006310E0,2.115045907E-3,3.491990864E-1,-2.583187222E-1
1.269499963E0,-1.998468651E-4,3.453353643E-1,-2.604171038E-1
1.272031537E0,1.365620177E-3,3.398395777E-1,-2.641142905E-1
1.274527062E0,9.992343257E-5,3.340939879E-1,-2.666123509E-1
1.277021569E0,1.648736536E-3,3.276655674E-1,-2.687107623E-1
1.279516563E0,3.197549842E-3,3.223030269E-1,-2.722747028E-1
1.281987348E0,2.881125547E-3,3.160411417E-1,-2.710589468E-1
1.284506798E0,3.214203520E-3,3.082970977E-1,-2.708924115E-1
1.287001956E0,4.896248225E-3,3.010859489E-1,-2.700763643E-1
1.289496096E0,4.429938737E-3,2.922926843E-1,-2.689938843E-1
1.291991377E0,5.146056414E-3,2.822670341E-1,-2.682943940E-1
1.294479984E0,3.464012174E-3,2.734904289E-1,-2.640309930E-1
1.296981122E0,2.564701252E-3,2.604337633E-1,-2.606835663E-1
1.299476647E0,1.931853010E-3,2.475103289E-1,-2.582521141E-1
1.301970991E0,4.829632526E-4,2.351198345E-1,-2.545049787E-1
1.304457075E0,-1.115811639E-3,2.192653120E-1,-2.510076463E-1
1.306944746E0,-2.314892830E-3,2.022117078E-1,-2.476435602E-1
1.309455814E0,-4.463246558E-3,1.851747632E-1,-2.425474674E-1
1.311950686E0,-5.262633786E-3,1.687706709E-1,-2.406489253E-1
1.314445356E0,-7.827335037E-3,1.501182914E-1,-2.364687920E-1
1.316939212E0,-8.510145359E-3,1.309163421E-1,-2.341705561E-1
1.319410282E0,-8.959800936E-3,1.095826924E-1,-2.325051725E-1
1.321930056E0,-8.709992282E-3,9.024751186E-2,-2.300570458E-1
1.324399824E0,-7.810681593E-3,7.116213441E-2,-2.284083068E-1
1.326947635E0,-7.311064284E-3,5.114414170E-2,-2.264931053E-1
1.329421308E0,-5.995405838E-3,3.139261156E-2,-2.231290191E-1
1.331879804E0,-6.811446976E-3,1.472205203E-2,-2.251940966E-1
1.334405277E0,-4.413284827E-3,-2.364854561E-3,-2.220798135E-1
1.336900515E0,-2.131699817E-3,-1.771975495E-2,-2.200480402E-1
1.339394819E0,6.828100886E-4,-3.242515400E-2,-2.186824232E-1
1.341866133E0,2.731240354E-3,-4.403292388E-2,-2.142691463E-1
1.344384646E0,5.029479042E-3,-5.738935620E-2,-2.126370519E-1
1.346880333E0,6.828100886E-3,-6.673219800E-2,-2.087733448E-1
1.349375451E0,7.144525182E-3,-7.672453672E-2,-2.048929930E-1
1.351869307E0,7.344372105E-3,-8.498487622E-2,-2.007628232E-1
1.354339724E0,7.694104221E-3,-9.189624339E-2,-1.954502314E-1
1.356841597E0,9.259571321E-3,-9.775841981E-2,-1.909203678E-1
1.359354455E0,8.276990615E-3,-1.025380939E-1,-1.869400889E-1
1.361850019E0,7.727412041E-3,-1.054525226E-1,-1.817607135E-1
1.364344119E0,7.044601720E-3,-1.087666526E-1,-1.786963940E-1
1.366813683E0,4.779670853E-3,-1.078007296E-1,-1.731506437E-1
1.369308637E0,3.447358264E-3,-1.092496142E-1,-1.698198617E-1
1.371828698E0,-2.831163874E-4,-1.086500734E-1,-1.634747237E-1
1.374324385E0,-4.280053545E-3,-1.076841503E-1,-1.610932201E-1
1.376818769E0,-6.378445774E-3,-1.033874378E-1,-1.579289734E-1
1.379288211E0,-8.626722731E-3,-1.013390124E-1,-1.534324288E-1
1.381783857E0,-1.205742732E-2,-9.675918519E-2,-1.489358693E-1
1.384303837E0,-1.520501543E-2,-9.098028392E-2,-1.451221257E-1
1.386799401E0,-1.755321585E-2,-8.481834084E-2,-1.418246478E-1
1.389293501E0,-1.898545213E-2,-7.932254672E-2,-1.394598037E-1
1.391763146E0,-2.199980803E-2,-7.367687672E-2,-1.345635504E-1
1.394257856E0,-2.393166162E-2,-6.616596133E-2,-1.320821196E-1
1.396778283E0,-2.469774149E-2,-6.255206466E-2,-1.279852539E-1
1.399273766E0,-2.571362816E-2,-5.665658414E-2,-1.238883957E-1
1.401768273E0,-2.646305412E-2,-4.996171594E-2,-1.228558570E-1
1.404258304E0,-2.559705079E-2,-4.381642491E-2,-1.186424196E-1
1.406732710E0,-2.647970803E-2,-3.793759644E-2,-1.175932214E-1
1.409253095E0,-2.403158508E-2,-3.260834515E-2,-1.149619073E-1
1.411748497E0,-2.424808592E-2,-2.727909572E-2,-1.159111783E-1
1.414242801E0,-2.341539040E-2,-2.313227393E-2,-1.118143201E-1
1.416693485E0,-2.136695944E-2,-1.928522252E-2,-1.124971285E-1
1.419235558E0,-2.131699771E-2,-1.327316184E-2,-1.115811616E-1
1.421727380E0,-1.648736559E-2,-9.309533052E-3,-1.117310449E-1
1.424222945E0,-1.592113264E-2,-5.712289363E-3,-1.117477044E-1
1.426717329E0,-1.523832325E-2,-3.580589546E-3,-1.130633578E-1
1.429176110E0,-1.518836152E-2,1.498851459E-3,-1.109649688E-1
1.431686812E0,-1.385604870E-2,1.748659997E-3,-1.113646626E-1
1.434202395E0,-1.570463181E-2,3.364088712E-3,-1.116311252E-1
1.436697879E0,-1.582120918E-2,4.696401302E-3,-1.118975878E-1
1.439191979E0,-1.620424911E-2,6.711523514E-3,-1.103154644E-1
1.441658857E0,-1.660394296E-2,7.510911208E-3,-1.112480834E-1
1.444156660E0,-1.751990803E-2,1.045865193E-2,-1.108650416E-1
1.446677249E0,-2.071745694E-2,9.959034622E-3,-1.095327288E-1
1.449172570E0,-2.165007591E-2,1.090830751E-2,-1.062352583E-1
1.451641930E0,-2.258269489E-2,1.132465526E-2,-1.058355644E-1
1.454155765E0,-2.523066662E-2,1.280685235E-2,-1.042534411E-1
1.456656254E0,-2.603005245E-2,1.255704463E-2,-1.022549793E-1
1.459151818E0,-2.684609406E-2,1.137461700E-2,-9.867438674E-2
1.461647057E0,-2.951071970E-2,1.115811616E-2,-9.564337879E-2
1.464115767E0,-2.912767977E-2,8.759954013E-3,-9.391137213E-2
1.466636559E0,-2.912767977E-2,8.759954013E-3,-9.019754827E-2
1.469131961E0,-3.044333868E-2,1.079173014E-2,-8.716654032E-2
1.471648197E0,-2.857810073E-2,9.459418245E-3,-8.383575827E-2
1.474121666E0,-2.911102585E-2,8.660030551E-3,-8.132101595E-2
1.476599572E0,-2.791194431E-2,8.410221897E-3,-7.682446390E-2
1.479087568E0,-2.642974630E-2,8.943147026E-3,-7.457618415E-2
1.481566491E0,-2.681278624E-2,1.084169187E-2,-6.821439415E-2
1.484075890E0,-2.453120239E-2,1.057522930E-2,-6.158614159E-2
1.486595829E0,-2.453120239E-2,1.059188321E-2,-5.682312325E-2
1.489065433E0,-2.344869822E-2,1.034207456E-2,-5.072779581E-2
1.491585696E0,-2.199980803E-2,6.894716527E-3,-4.503215849E-2
1.494081099E0,-2.160011418E-2,6.628253963E-3,-4.025248811E-2
1.496540083E0,-2.254938707E-2,3.064318560E-3,-3.415715694E-2
1.499071089E0,-2.203311585E-2,6.661561783E-4,-3.082637861E-2
1.501539880E0,-2.406489290E-2,-3.563935636E-3,-2.711255662E-2
1.504060184E0,-2.529728226E-2,-6.744831335E-3,-2.233288623E-2
1.506554935E0,-2.656297758E-2,-1.525497716E-2,-1.951837726E-2
1.509026777E0,-2.837825380E-2,-2.404823899E-2,-1.763648540E-2
1.511545780E0,-3.072645515E-2,-3.469008207E-2,-1.602105610E-2
1.514040084E0,-3.244180605E-2,-4.721381888E-2,-1.412251126E-2
1.516534997E0,-3.508977592E-2,-6.186925620E-2,-1.367285568E-2
1.519030480E0,-3.910337016E-2,-7.692438364E-2,-1.548813190E-2
1.521537235E0,-4.176799208E-2,-9.277890623E-2,-1.517170761E-2
1.524020511E0,-4.539854452E-2,-1.104986593E-1,-1.523832325E-2
1.526504968E0,-4.608135298E-2,-1.275855601E-1,-1.796956360E-2
1.529009607E0,-4.889586568E-2,-1.438564360E-1,-2.110049687E-2
1.531504764E0,-5.061121657E-2,-1.574626714E-1,-2.264931053E-2
1.533974206E0,-5.259303004E-2,-1.706692129E-1,-2.524732053E-2
1.536494999E0,-5.392534286E-2,-1.861407012E-1,-2.573028207E-2
1.538964115E0,-5.454153940E-2,-1.953336447E-1,-2.569697425E-2
1.541458418E0,-5.181029812E-2,-2.036439478E-1,-2.859475464E-2
1.543954146E0,-5.094429478E-2,-2.117877007E-1,-2.817840688E-2
1.546449304E0,-4.949540645E-2,-2.150019109E-1,-2.684609406E-2
1.548969526E0,-4.751358926E-2,-2.170003802E-1,-2.484762669E-2
1.551438399E0,-4.561504349E-2,-2.152850330E-1,-2.259934880E-2
1.553958825E0,-4.559839144E-2,-2.122040540E-1,-2.075076476E-2
1.556454064E0,-4.513208196E-2,-2.065750360E-1,-1.600440219E-2
1.558924076E0,-4.438265786E-2,-1.973654330E-1,-1.152450219E-2
1.561444258E0,-4.374980927E-2,-1.869400889E-1,-5.612365901E-3
1.563913252E0,-4.566500708E-2,-1.754322350E-1,-1.265696716E-3
1.566433760E0,-4.754689708E-2,-1.621757299E-1,5.712289363E-3
1.568929406E0,-4.942879081E-2,-1.488026381E-1,1.070846058E-2
1.571421228E0,-5.530761927E-2,-1.348466724E-1,1.582120918E-2
1.573919355E0,-5.907139927E-2,-1.211904660E-1,2.148353681E-2
1.576388024E0,-6.430072337E-2,-1.081837639E-1,2.514739707E-2
1.578884159E0,-6.899712980E-2,-9.559341520E-2,2.961064316E-2
1.581403364E0,-7.502584159E-2,-8.378579468E-2,3.354096413E-2
1.583898848E0,-8.040504903E-2,-7.184494287E-2,3.615562618E-2
1.586350224E0,-8.458518237E-2,-6.087002158E-2,3.916998580E-2
1.588888227E0,-8.903177828E-2,-4.934551939E-2,4.098526016E-2
1.591382897E0,-9.309532493E-2,-4.116845131E-2,4.110183567E-2
1.593878544E0,-9.637615085E-2,-3.314127028E-2,4.160145298E-2
1.596331098E0,-9.752526879E-2,-2.846152335E-2,4.145156965E-2
1.598861535E0,-1.017720103E-1,-2.401493117E-2,4.183460772E-2
1.601362634E0,-1.006895080E-1,-2.296573482E-2,3.865371272E-2
1.603835779E0,-1.016387790E-1,-2.283250354E-2,3.707159311E-2
1.606352217E0,-9.895750135E-2,-2.166672982E-2,3.415715694E-2
1.608811853E0,-9.709226340E-2,-2.183326893E-2,3.215869144E-2
1.611316939E0,-9.522702545E-2,-2.318223566E-2,2.926091105E-2
1.613838138E0,-9.189624339E-2,-2.256604098E-2,2.541385964E-2
1.616308841E0,-8.641710877E-2,-2.274923399E-2,2.448124066E-2
1.618827315E0,-8.255340904E-2,-2.251607925E-2,2.050095610E-2
1.621290449E0,-7.667458057E-2,-2.258269489E-2,1.800287142E-2
1.623796919E0,-7.052928954E-2,-2.224961668E-2,1.482197549E-2
1.626312748E0,-6.490026414E-2,-2.030110918E-2,1.255704463E-2
1.628803673E0,-5.860508978E-2,-1.728675328E-2,1.095826924E-2
1.631301721E0,-5.259303004E-2,-1.667055860E-2,8.443529718E-3
1.633776778E0,-4.669754952E-2,-1.567132398E-2,6.311830133E-3
1.636266158E0,-3.945310041E-2,-1.145788655E-2,3.913667519E-3
1.638787642E0,-3.488992900E-2,-8.293644525E-3,4.030244891E-3
1.641281905E0,-2.791194431E-2,-3.946975339E-3,3.497319994E-3
1.643776697E0,-2.279919572E-2,-1.182427281E-3,3.214203520E-3
1.646261152E0,-1.875229739E-2,4.779670853E-3,2.664624713E-3
1.648741459E0,-1.255704463E-2,9.942381643E-3,3.847052110E-3
1.651262252E0,-9.176301770E-3,1.538820844E-2,5.146056414E-3
1.653732751E0,-4.180130083E-3,2.123372816E-2,6.711523514E-3
1.656250939E0,-7.993874606E-4,2.468108758E-2,7.893950678E-3
1.658707483E0,1.498851459E-3,2.812844515E-2,9.209609590E-3
1.661202111E0,3.780436469E-3,2.999368310E-2,1.185758039E-2
1.663710493E0,4.879594315E-3,3.305800259E-2,1.343970094E-2
1.666205570E0,5.695635453E-3,3.345769644E-2,1.488859113E-2
1.668725875E0,3.680513008E-3,3.174234182E-2,1.675382815E-2
1.671229577E0,3.530627815E-3,3.080972470E-2,1.688705944E-2
1.673690433E0,1.748659997E-3,2.429804765E-2,1.850248873E-2
1.676211104E0,1.149119460E-3,1.748660021E-2,1.547147799E-2
1.678706261E0,-2.664624713E-3,8.310298435E-3,1.523832325E-2
1.681187097E0,-4.613131750E-3,-3.663859097E-4,1.195750386E-2
1.683668339E0,-6.977986079E-3,-1.117477007E-2,8.809915744E-3
1.686180220E0,-1.099157706E-2,-2.543051355E-2,3.430704353E-3
1.688685795E0,-1.390601043E-2,-3.890352324E-2,-1.831929549E-3
1.691154993E0,-1.712021418E-2,-5.452488363E-2,-7.877296768E-3
1.693675094E0,-2.140026726E-2,-6.933020800E-2,-1.378943305E-2
1.696144291E0,-2.329881303E-2,-8.734972775E-2,-2.193319239E-2
1.698639693E0,-2.652966976E-2,-1.039037108E-1,-3.036006913E-2
1.701160079E0,-2.867802419E-2,-1.203411147E-1,-3.758786246E-2
1.703655196E0,-3.095960990E-2,-1.363621801E-1,-4.521535337E-2
1.706140263E0,-3.270826861E-2,-1.514672637E-1,-5.417515337E-2
1.708620447E0,-3.269161656E-2,-1.653899252E-1,-6.340141594E-2
1.711139855E0,-3.467343003E-2,-1.776638627E-1,-7.064586133E-2
1.713635461E0,-3.532293066E-2,-1.902375519E-1,-7.750727236E-2
1.716103845E0,-3.810413554E-2,-2.005296648E-1,-8.568433672E-2
1.718598107E0,-4.085202888E-2,-2.103887796E-1,-8.988112211E-2
1.721119429E0,-4.416615516E-2,-2.210639268E-1,-9.674253315E-2
1.723614465E0,-4.894582555E-2,-2.326550484E-1,-9.869103879E-2
1.726121912E0,-5.547415838E-2,-2.466110289E-1,-1.007561237E-1
1.728585168E0,-6.225229800E-2,-2.583187222E-1,-1.036372483E-1
1.731073612E0,-7.321056724E-2,-2.734404504E-1,-1.029211283E-1
1.733594242E0,-8.565103263E-2,-2.914766371E-1,-1.018053219E-1
1.736089685E0,-9.969027340E-2,-3.087134361E-1,-1.020218208E-1
1.738556889E0,-1.147120968E-1,-3.316791654E-1,-9.929057956E-2
1.741067265E0,-1.342637837E-1,-3.541952372E-1,-9.869103879E-2
1.743548547E0,-1.553143114E-1,-3.800421059E-1,-9.607637674E-2
1.746068526E0,-1.799954027E-1,-4.066717029E-1,-9.546018392E-2
1.748564376E0,-2.021284401E-1,-4.345170259E-1,-9.562671930E-2
1.751058434E0,-2.290911078E-1,-4.627120793E-1,-9.474406391E-2
1.753548588E0,-2.590181828E-1,-4.953037798E-1,-9.411121905E-2
1.756022953E0,-2.896280587E-1,-5.282951593E-1,-9.664260596E-2
1.758517705E0,-3.223862946E-1,-5.616862774E-1,-1.006395444E-1
1.761038985E0,-3.539287746E-1,-5.941447020E-1,-1.062186062E-1
1.763532190E0,-3.851715028E-1,-6.240717769E-1,-1.120807827E-1
1.766030685E0,-4.174967408E-1,-6.535991430E-1,-1.195250750E-1
1.768497644E0,-4.460581839E-1,-6.799789071E-1,-1.299004555E-1
1.771017785E0,-4.733872414E-1,-7.024783492E-1,-1.394931078E-1
1.773513269E0,-4.989176691E-1,-7.192655206E-1,-1.507011801E-1
1.776007694E0,-5.217502117E-1,-7.315394282E-1,-1.608600616E-1
1.778501102E0,-5.425342321E-1,-7.383508682E-1,-1.726177186E-1
1.780975549E0,-5.601873994E-1,-7.394500375E-1,-1.830763817E-1
1.783492557E0,-5.749927163E-1,-7.347036600E-1,-1.948839873E-1
1.785987675E0,-5.904142261E-1,-7.240784764E-1,-2.047097981E-1
1.788457035E0,-6.012559533E-1,-7.096228600E-1,-2.145522535E-1
1.790978154E0,-6.081672907E-1,-6.891885400E-1,-2.213803530E-1
1.793446903E0,-6.135964990E-1,-6.648738384E-1,-2.284749150E-1
1.795967289E0,-6.173769236E-1,-6.381776333E-1,-2.302735448E-1
1.798462651E0,-6.188757420E-1,-6.094663143E-1,-2.302402407E-1
1.800957116E0,-6.167440414E-1,-5.795891881E-1,-2.279419899E-1
1.803452722E0,-6.106154323E-1,-5.501284599E-1,-2.238118201E-1
1.805921472E0,-6.034209132E-1,-5.221332312E-1,-2.175333053E-1
1.808441939E0,-5.977252722E-1,-4.973355532E-1,-2.095394284E-1
1.810937707E0,-5.904142261E-1,-4.715886116E-1,-1.984978914E-1
1.813453251E0,-5.807383060E-1,-4.502716362E-1,-1.875729263E-1
1.815927250E0,-5.701297522E-1,-4.303036034E-1,-1.762482673E-1
1.818396244E0,-5.611699820E-1,-4.151152372E-1,-1.664890796E-1
1.820916671E0,-5.504781604E-1,-4.008761346E-1,-1.563301980E-1
1.823411707E0,-5.399695635E-1,-3.914666772E-1,-1.478866786E-1
1.825887740E0,-5.290445685E-1,-3.808248341E-1,-1.382607222E-1
1.828402104E0,-5.220832825E-1,-3.639211357E-1,-1.315658540E-1
1.830871017E0,-5.163376927E-1,-3.172235787E-1,-1.244213209E-1
1.833390751E0,-5.063120127E-1,-2.385671884E-1,-1.209573075E-1
1.835864831E0,-4.917731583E-1,-1.457882822E-1,-1.180761829E-1
1.838381718E0,-4.769845009E-1,-4.113514349E-2,-1.113979667E-1
1.840876672E0,-4.571330249E-1,9.221266955E-2,-9.659264982E-2
1.843370854E0,-4.401960075E-1,2.609167397E-1,-8.520137519E-2
1.845866581E0,-4.522700906E-1,4.602639675E-1,-7.947243750E-2
1.848360925E0,-4.998503029E-1,7.126871943E-1,-8.728311211E-2
1.850865075E0,-5.891318917E-1,1.029277921E0,-1.163441762E-1
1.853350590E0,-7.340375185E-1,1.438980699E0,-1.635746509E-1
1.855846033E0,-9.101192355E-1,1.875912547E0,-2.341872156E-1
1.858315962E0,-1.082104087E0,2.264581442E0,-3.246678710E-1
1.860836186E0,-1.228025675E0,2.547031641E0,-4.255239367E-1
1.863311691E0,-1.341222167E0,2.717900515E0,-5.358560681E-1
1.865826013E0,-1.422143579E0,2.785881758E0,-6.493024230E-1
1.868320642E0,-1.474137068E0,2.752374172E0,-7.575361729E-1
1.870796839E0,-1.501183033E0,2.633965015E0,-8.557109237E-1
1.873309574E0,-1.501715899E0,2.443327665E0,-9.438434243E-1
1.875779748E0,-1.485961318E0,2.199531078E0,-1.016870737E0
1.878299890E0,-1.447757244E0,1.907938004E0,-1.080188870E0
1.880795293E0,-1.390917420E0,1.574726582E0,-1.134647131E0
1.883289758E0,-1.311361790E0,1.211355090E0,-1.180412173E0
1.885785283E0,-1.212304354E0,8.265166283E-1,-1.212987185E0
1.888254725E0,-1.094677806E0,4.266230762E-1,-1.241032362E0
1.890774906E0,-9.617463350E-1,1.888552867E-2,-1.258568883E0
1.893270186E0,-8.167741299E-1,-3.898346126E-1,-1.268844366E0
1.895740198E0,-6.661229134E-1,-7.901778221E-1,-1.271442413E0
1.898259525E0,-5.123740435E-1,-1.173950434E0,-1.264564276E0
1.900748092E0,-3.609400690E-1,-1.531776190E0,-1.249292612E0
1.903249313E0,-2.096560150E-1,-1.861556768E0,-1.225244403E0
1.905744917E0,-5.923793837E-2,-2.154582262E0,-1.191103935E0
1.908228560E0,8.829900622E-2,-2.408337831E0,-1.149669051E0
1.910734664E0,2.312727720E-1,-2.618526697E0,-1.102405190E0
1.913228927E0,3.686674833E-1,-2.778337717E0,-1.050544977E0
1.915724125E0,5.043302178E-1,-2.889685631E0,-9.928558469E-1
1.918219731E0,6.369452477E-1,-2.951888084E0,-9.338843822E-1
1.920691614E0,7.670455575E-1,-2.964295149E0,-8.739969134E-1
1.923208948E0,8.965629935E-1,-2.934934378E0,-8.154417872E-1
1.925680139E0,1.021450639E0,-2.866986275E0,-7.587186098E-1
1.928198735E0,1.144589543E0,-2.767679214E0,-7.058091164E-1
1.930694096E0,1.264880776E0,-2.643124580E0,-6.554976702E-1
1.933209518E0,1.377144694E0,-2.502932072E0,-6.119977236E-1
1.935683639E0,1.485894680E0,-2.349782705E0,-5.722281933E-1
1.938133956E0,1.589498639E0,-2.189022541E0,-5.400528312E-1
1.940647953E0,1.680995226E0,-2.020701647E0,-5.113248229E-1
1.943168990E0,1.765730262E0,-1.846734881E0,-4.863273203E-1
1.945630620E0,1.842904449E0,-1.664307952E0,-4.609634280E-1
1.948158126E0,1.907971263E0,-1.477767587E0,-4.371983111E-1
1.950628097E0,1.962279677E0,-1.284349084E0,-4.127836823E-1
1.953147913E0,2.002598763E0,-1.086134315E0,-3.836060464E-1
1.955643599E0,2.027962685E0,-8.865872622E-1,-3.529961705E-1
1.958141443E0,2.038521290E0,-6.863573790E-1,-3.183893561E-1
1.960607345E0,2.029278278E0,-4.891751409E-1,-2.795358002E-1
1.963082117E0,2.000350475E0,-2.980715930E-1,-2.323219776E-1
1.965596969E0,1.948873281E0,-1.050361767E-1,-1.821937114E-1
1.968117477E0,1.868718028E0,9.252909571E-2,-1.241215542E-1
1.970612960E0,1.760101199E0,3.027180135E-1,-6.501684338E-2
1.973112553E0,1.615162253E0,5.317924619E-1,-9.326186846E-4
1.975602869E0,1.425907373E0,8.148255944E-1,6.098660082E-2
1.978097458E0,1.205925941E0,1.111598134E0,1.215568483E-1
1.980592818E0,9.729710817E-1,1.376428604E0,1.773307770E-1
1.983097905E0,7.414485216E-1,1.590764284E0,2.258436084E-1
1.985582443E0,5.151219368E-1,1.740982533E0,2.654299438E-1
1.988051558E0,3.012191653E-1,1.829931021E0,2.952570915E-1
1.990571822E0,1.010225862E-1,1.863788486E0,3.179730177E-1
1.993067632E0,-8.237021416E-2,1.849815845E0,3.307798505E-1
1.995536381E0,-2.527230084E-1,1.800886631E0,3.352097869E-1
1.998057215E0,-4.034075439E-1,1.723729134E0,3.305799961E-1
2.000525965E0,-5.378378630E-1,1.626536965E0,3.158246577E-1
2.003046513E0,-6.549814343E-1,1.521300912E0,2.937915325E-1
2.005542159E0,-7.518571615E-1,1.412001371E0,2.663458884E-1
2.008022872E0,-8.266498446E-1,1.309046865E0,2.343703955E-1
2.010531824E0,-8.800089955E-1,1.212754011E0,2.050095648E-1
2.013005945E0,-9.119178653E-1,1.124155283E0,1.776138991E-1
2.015521082E0,-9.219768047E-1,1.044066548E0,1.526996493E-1
2.018016647E0,-9.135332704E-1,9.712224007E-1,1.365120560E-1
2.020475590E0,-8.896515965E-1,9.045401812E-1,1.265030652E-1
2.023006311E0,-8.507480621E-1,8.450857401E-1,1.209906191E-1
2.025480229E0,-8.010028601E-1,7.863973975E-1,1.275189519E-1
2.027970463E0,-7.371851206E-1,7.324220538E-1,1.346967816E-1
2.030465784E0,-6.666558385E-1,6.833429933E-1,1.483529806E-1
2.032960495E0,-5.896814466E-1,6.346136928E-1,1.646405011E-1
2.035456588E0,-5.080106854E-1,5.889486670E-1,1.868901253E-1
2.037950077E0,-4.223430157E-1,5.412685871E-1,2.127203196E-1
2.040446538E0,-3.355928361E-1,4.962530434E-1,2.398661971E-1
2.042939946E0,-2.478767186E-1,4.527030885E-1,2.708591223E-1
2.045436080E0,-1.621757299E-1,4.089033306E-1,2.998535633E-1
2.047930180E0,-7.980550826E-2,3.658030331E-1,3.301636577E-1
2.050425990E0,1.648736536E-3,3.248177469E-1,3.579590321E-1
2.052950240E0,7.950574160E-2,2.861473858E-1,3.832396567E-1
2.055441004E0,1.540486217E-1,2.501416504E-1,4.063885808E-1
2.057935145E0,2.236619443E-1,2.155015320E-1,4.272725880E-1
2.060430750E0,2.905939817E-1,1.823436022E-1,4.437932670E-1
2.062910771E0,3.502482772E-1,1.554975063E-1,4.563169777E-1
2.065419723E0,4.068049192E-1,1.277354509E-1,4.672419429E-1
2.067915492E0,4.581988752E-1,1.061353385E-1,4.734039009E-1
2.070385340E0,5.049297214E-1,8.709992468E-2,4.772842526E-1
2.072904708E0,5.473139286E-1,7.502584159E-2,4.771843255E-1
2.075373703E0,5.830365419E-1,6.604938954E-2,4.735038280E-1
2.077888269E0,6.159946322E-1,6.255206466E-2,4.676749408E-1
2.080352828E0,6.424410343E-1,6.325153261E-2,4.599808455E-1
2.082858932E0,6.637247205E-1,6.878062338E-2,4.518870413E-1
2.085379114E0,6.807616949E-1,7.848985493E-2,4.416449070E-1
2.087855433E0,6.919198036E-1,8.994773775E-2,4.291544855E-1
2.090331100E0,7.000135779E-1,1.003897414E-1,4.171969593E-1
2.092863570E0,7.010461092E-1,1.148619801E-1,4.027080834E-1
2.095359420E0,7.002134323E-1,1.293675303E-1,3.894182444E-1
2.097829228E0,6.919364333E-1,1.469873637E-1,3.758619726E-1
2.100323125E0,6.826768517E-1,1.600939929E-1,3.629718423E-1
2.102843307E0,6.664726138E-1,1.740499586E-1,3.488826454E-1
2.105339116E0,6.478701830E-1,1.865570396E-1,3.363922238E-1
2.107808151E0,6.249710917E-1,1.985645145E-1,3.240516782E-1
2.110328577E0,6.009728312E-1,2.072411925E-1,3.124938607E-1
2.112815963E0,5.713288784E-1,2.101056576E-1,3.016355336E-1
2.115318364E0,5.370218158E-1,2.150185704E-1,2.922260761E-1
2.117813399E0,5.007995963E-1,2.128702104E-1,2.846818566E-1
2.120292729E0,4.638945162E-1,2.115212381E-1,2.750225961E-1
2.122803350E0,4.232423306E-1,2.076908499E-1,2.680279315E-1
2.125255619E0,3.792260587E-1,2.008127868E-1,2.622323930E-1
2.127792973E0,3.321288228E-1,1.930187643E-1,2.575026751E-1
2.130288253E0,2.843487561E-1,1.832429171E-1,2.527729571E-1
2.132779261E0,2.369517535E-1,1.714686006E-1,2.493755668E-1
2.135277470E0,1.883390099E-1,1.586284488E-1,2.450622022E-1
2.137727707E0,1.400093734E-1,1.465876698E-1,2.425807714E-1
2.140242803E0,9.044735879E-2,1.322986186E-1,2.411818504E-1
2.142763473E0,4.238418862E-2,1.205409616E-1,2.397829145E-1
2.145257939E0,-6.495022681E-3,1.065017208E-1,2.375846058E-1
2.147752406E0,-5.081106350E-2,9.404460341E-2,2.364354879E-1
2.150210698E0,-9.595979750E-2,8.025516570E-2,2.357027084E-1
2.152747645E0,-1.376278698E-1,6.669888645E-2,2.329714745E-1
2.155237798E0,-1.800786704E-1,5.409188196E-2,2.319555879E-1
2.157706547E0,-2.181328386E-1,4.143491387E-2,2.301569581E-1
2.160227259E0,-2.531060576E-1,2.877794765E-2,2.290078402E-1
2.162713384E0,-2.871299684E-1,1.848583482E-2,2.270593345E-1
2.165191452E0,-3.158246577E-1,6.178598851E-3,2.261766791E-1
2.167686487E0,-3.425042033E-1,-3.630551277E-3,2.223795950E-1
2.170177780E0,-3.627386987E-1,-1.189088821E-2,2.185658514E-1
2.172701584E0,-3.821904659E-1,-1.976818591E-2,2.128868699E-1
2.175150680E0,-3.946975470E-1,-2.904441021E-2,2.061753422E-1
2.177691899E0,-4.022584260E-1,-3.807082772E-2,2.020951360E-1
2.180187546E0,-4.043568075E-1,-4.689739645E-2,1.963162273E-1
2.182659550E0,-4.041569531E-1,-5.359226465E-2,1.897046268E-1
2.185176478E0,-3.986112177E-1,-6.085336953E-2,1.848250329E-1
2.187628260E0,-3.879860342E-1,-6.831431389E-2,1.774307042E-1
2.190144210E0,-3.749626577E-1,-7.525899261E-2,1.704360694E-1
2.192662155E0,-3.556607962E-1,-8.143759519E-2,1.651401222E-1
2.195143600E0,-3.339441121E-1,-8.909839392E-2,1.592113227E-1
2.197651332E0,-3.097126782E-1,-9.705895931E-2,1.516671181E-1
2.200130660E0,-2.811845243E-1,-1.034540534E-1,1.452053934E-1
2.202637415E0,-2.533225417E-1,-1.087666526E-1,1.416414678E-1
2.205136643E0,-2.207641602E-1,-1.135629788E-1,1.391267180E-1
2.207605351E0,-1.893882006E-1,-1.158279106E-1,1.359458268E-1
2.210125900E0,-1.588449478E-1,-1.222230047E-1,1.346301734E-1
2.212611537E0,-1.270692945E-1,-1.230057403E-1,1.354295611E-1
2.215090255E0,-9.541022032E-2,-1.249875575E-1,1.354295611E-1
2.217607956E0,-6.561638415E-2,-1.253539473E-1,1.387270242E-1
2.220105392E0,-3.890352324E-2,-1.254038960E-1,1.429571211E-1
2.222600956E0,-1.390601043E-2,-1.247877106E-1,1.498518288E-1
2.225095138E0,1.069180667E-2,-1.238883957E-1,1.565966606E-1
2.227590866E0,3.290811554E-2,-1.213570014E-1,1.646571606E-1
2.230085292E0,4.936217517E-2,-1.195750386E-1,1.748493463E-1
2.232580449E0,6.383441389E-2,-1.167105660E-1,1.854412258E-1
2.235072881E0,7.925593108E-2,-1.121307388E-1,1.973321140E-1
2.237570318E0,8.839892596E-2,-1.066849157E-1,2.092396617E-1
2.240065027E0,9.392802417E-2,-1.029377878E-1,2.228625566E-1
2.242559779E0,1.006728560E-1,-9.680914879E-2,2.337042391E-1
2.245046310E0,1.043533683E-1,-8.876531571E-2,2.478600591E-1
2.247524988E0,1.039203629E-1,-7.883958519E-2,2.596177161E-1
2.250043828E0,1.060520634E-1,-6.559973210E-2,2.733405530E-1
2.252540085E0,1.048529819E-1,-5.245979875E-2,2.856311202E-1
2.255034348E0,1.031376347E-1,-3.452354297E-2,2.945742607E-1
2.257528773E0,1.002398506E-1,-1.590447873E-2,3.069647849E-1
2.259998825E0,9.617630392E-2,6.844754796E-3,3.172235787E-1
2.262519211E0,9.454421699E-2,3.317457810E-2,3.249509931E-1
2.265015019E0,8.994773775E-2,5.913801491E-2,3.316292167E-1
2.267483444E0,8.739969134E-2,8.733307570E-2,3.375080228E-1
2.269982142E0,8.496822417E-2,1.155281365E-1,3.407222331E-1
2.272486333E0,8.401895314E-2,1.455717832E-1,3.446025848E-1
2.274968674E0,8.253674954E-2,1.752157360E-1,3.478167951E-1
2.277489344E0,8.358594775E-2,2.034940571E-1,3.476003110E-1
2.279983688E0,8.340275288E-2,2.299238145E-1,3.494988382E-1
2.282454147E0,8.413552493E-2,2.538055182E-1,3.480999172E-1
2.284948207E0,8.724980801E-2,2.747228146E-1,3.463179469E-1
2.287468064E0,9.101358801E-2,2.940413356E-1,3.455851674E-1
2.289964320E0,9.580991417E-2,3.089299202E-1,3.415715992E-1
2.292458257E0,1.007228196E-1,3.203545213E-1,3.396730423E-1
2.294928309E0,1.053192914E-1,3.275156915E-1,3.370084167E-1
2.297416387E0,1.124305129E-1,3.315792382E-1,3.323619664E-1
2.299943324E0,1.198914573E-1,3.296307325E-1,3.289146125E-1
2.302438889E0,1.276022196E-1,3.251674771E-1,3.264165223E-1
2.304907719E0,1.364953965E-1,3.190721571E-1,3.216535151E-1
2.307402959E0,1.436066180E-1,3.080472648E-1,3.170570433E-1
2.309905767E0,1.521500796E-1,2.928922176E-1,3.160411417E-1
2.312418095E0,1.612097919E-1,2.736070156E-1,3.134597838E-1
2.314913416E0,1.681211740E-1,2.533891499E-1,3.109950125E-1
2.317407679E0,1.744829565E-1,2.313227355E-1,3.110616207E-1
2.319883428E0,1.780135930E-1,2.076741904E-1,3.110116720E-1
2.322374964E0,1.831762940E-1,1.848083884E-1,3.122773767E-1
2.324891973E0,1.826766878E-1,1.584119499E-1,3.150086105E-1
2.327387660E0,1.826100647E-1,1.341305524E-1,3.161410689E-1
2.329882085E0,1.801452935E-1,1.100156978E-1,3.204544485E-1
2.332366135E0,1.756820381E-1,8.711657673E-2,3.246345520E-1
2.334848231E0,1.681544781E-1,6.543318927E-2,3.277488351E-1
2.337341679E0,1.598441750E-1,4.629785568E-2,3.315292895E-1
2.339862717E0,1.464710981E-1,2.694601752E-2,3.358259797E-1
2.342332118E0,1.313659996E-1,1.025880501E-2,3.401226997E-1
2.344847620E0,1.156280637E-1,-3.480666084E-3,3.437532485E-1
2.347321579E0,9.855780751E-2,-1.520501543E-2,3.467009962E-1
2.349841802E0,7.604172826E-2,-2.608001418E-2,3.497819602E-1
2.352337449E0,5.485796183E-2,-3.459015861E-2,3.520635366E-1
2.354807907E0,3.329115734E-2,-4.120175913E-2,3.539454341E-1
2.357331101E0,1.149119437E-2,-4.516538978E-2,3.543617725E-1
2.359796067E0,-1.194084994E-2,-5.017821491E-2,3.559772074E-1
2.362316492E0,-3.507312387E-2,-5.334245786E-2,3.555941880E-1
2.364812098E0,-5.728943273E-2,-5.835528299E-2,3.565434515E-1
2.367260463E0,-7.895616442E-2,-6.098660082E-2,3.569431305E-1
2.369800867E0,-9.689241648E-2,-6.418415159E-2,3.543118238E-1
2.372270838E0,-1.157279834E-1,-6.390102953E-2,3.549779952E-1
2.374791102E0,-1.326816529E-1,-6.350133568E-2,3.540620208E-1
2.377285405E0,-1.469707042E-1,-6.180264056E-2,3.510143459E-1
2.379776128E0,-1.593612134E-1,-5.823870376E-2,3.498152792E-1
2.382276006E0,-1.698864847E-1,-5.415849760E-2,3.487327695E-1
2.384739833E0,-1.780968606E-1,-4.623124003E-2,3.471173346E-1
2.387265955E0,-1.852413863E-1,-3.788763285E-2,3.482831120E-1
2.389760788E0,-1.903874427E-1,-2.971056662E-2,3.474670649E-1
2.392231573E0,-1.931186765E-1,-2.021783963E-2,3.477002382E-1
2.394750575E0,-1.946175247E-1,-8.843223564E-3,3.508478105E-1
2.397220179E0,-1.965160817E-1,3.314126981E-3,3.513474166E-1
2.399740362E0,-1.966493130E-1,2.000133879E-2,3.520801961E-1
2.402235885E0,-1.935683340E-1,3.585585579E-2,3.548114300E-1
2.404708338E0,-1.924691796E-1,5.574062094E-2,3.567433059E-1
2.407225673E0,-1.897379309E-1,7.695769519E-2,3.605070710E-1
2.409694830E0,-1.852746904E-1,9.974023700E-2,3.620225787E-1
2.412215052E0,-1.782467365E-1,1.243880168E-1,3.653866649E-1
2.414710577E0,-1.737668365E-1,1.475869119E-1,3.675683439E-1
2.417179652E0,-1.655564606E-1,1.704693735E-1,3.704161644E-1
2.419700322E0,-1.594777852E-1,1.949839145E-1,3.723313510E-1
2.422171392E0,-1.522000432E-1,2.177331448E-1,3.721314967E-1
2.424689703E0,-1.436066180E-1,2.384839207E-1,3.725811541E-1
2.427184290E0,-1.334310919E-1,2.577524781E-1,3.709324300E-1
2.429661911E0,-1.238217801E-1,2.731406987E-1,3.679680228E-1
2.432174892E0,-1.112647355E-1,2.894448638E-1,3.644707203E-1
2.434669520E0,-9.819142520E-2,3.030677736E-1,3.588583469E-1
2.437159877E0,-8.406890929E-2,3.149420023E-1,3.553776741E-1
2.439659755E0,-6.931354851E-2,3.236020207E-1,3.470007479E-1
2.442161057E0,-5.255972221E-2,3.318457007E-1,3.391567767E-1
2.444649826E0,-3.369085118E-2,3.360591531E-1,3.290811479E-1
2.447122890E0,-1.553809363E-2,3.368085623E-1,3.186058402E-1
2.449596116E0,2.897779457E-3,3.368752003E-1,3.083969951E-1
2.452134527E0,2.474770322E-2,3.327949941E-1,2.975553274E-1
2.454607305E0,4.474904388E-2,3.284649551E-1,2.874963582E-1
2.457122930E0,6.591615826E-2,3.222530484E-1,2.774373889E-1
2.459593348E0,8.681680262E-2,3.155082166E-1,2.684442997E-1
2.462113693E0,1.094328091E-1,3.060821295E-1,2.576192617E-1
2.464609177E0,1.307165027E-1,2.957233787E-1,2.481098771E-1
2.467078130E0,1.507844478E-1,2.853979766E-1,2.408487648E-1
2.469573329E0,1.709856391E-1,2.737235725E-1,2.308064699E-1
2.472083013E0,1.899877489E-1,2.625987828E-1,2.246112078E-1
2.474562872E0,2.064584643E-1,2.516404986E-1,2.189488858E-1
2.477083135E0,2.205143571E-1,2.412318140E-1,2.124871761E-1
2.479557134E0,2.331546694E-1,2.344370186E-1,2.101223171E-1
2.482073126E0,2.417314351E-1,2.222130448E-1,2.045932263E-1
2.484542648E0,2.469940633E-1,2.128202468E-1,2.030444145E-1
2.487062831E0,2.503581643E-1,2.008960545E-1,1.983146966E-1
2.489558396E0,2.508077919E-1,1.912867576E-1,1.967492253E-1
2.492029831E0,2.468108684E-1,1.780968606E-1,1.942677945E-1
2.494547938E0,2.397496104E-1,1.648070365E-1,1.940512955E-1
2.497039231E0,2.290578038E-1,1.487193704E-1,1.892050058E-1
2.499537887E0,2.166339904E-1,1.333644688E-1,1.901709437E-1
2.502033046E0,1.988809258E-1,1.178763360E-1,1.881058514E-1
2.504523606E0,1.806948632E-1,1.014722437E-1,1.876228899E-1
2.507023077E0,1.598608345E-1,8.483499289E-2,1.884722412E-1
2.509491542E0,1.376944780E-1,7.192821801E-2,1.893215925E-1
2.512012213E0,1.132632047E-1,5.758920312E-2,1.897712499E-1
2.514507330E0,8.751627058E-2,4.644773901E-2,1.895380914E-1
2.517002284E0,6.153617799E-2,3.758786246E-2,1.909037083E-1
2.519497483E0,3.770444170E-2,3.109284118E-2,1.905206740E-1
2.521956305E0,1.335643139E-2,2.862806246E-2,1.913367063E-1
2.524486984E0,-1.029211283E-2,2.694601752E-2,1.918696314E-1
2.526981980E0,-3.242515400E-2,3.140926361E-2,1.954502314E-1
2.529432053E0,-5.066118017E-2,3.916998580E-2,1.964827627E-1
2.531971847E0,-6.648238748E-2,4.956202209E-2,1.955334991E-1
2.534427373E0,-8.197052032E-2,6.609934568E-2,1.946841478E-1
2.536961513E0,-9.342840314E-2,8.553445339E-2,1.933018714E-1
2.539457322E0,-1.012723967E-1,1.061353385E-1,1.913866699E-1
2.541909510E0,-1.057522967E-1,1.314992309E-1,1.848083884E-1
2.544421270E0,-1.064684168E-1,1.570962816E-1,1.782467365E-1
2.546915899E0,-1.046531349E-1,1.845419258E-1,1.700696796E-1
2.549436040E0,-9.842457622E-2,2.110049725E-1,1.589948237E-1
2.551931809E0,-9.074712545E-2,2.373181432E-1,1.464544386E-1
2.554428106E0,-7.893951237E-2,2.615995407E-1,1.340639293E-1
2.556921717E0,-6.713189185E-2,2.842654884E-1,1.215401962E-1
2.559389979E0,-5.191022158E-2,3.025015295E-1,1.077008024E-1
2.561910691E0,-3.802086413E-2,3.183560371E-1,9.307867289E-2
2.564406581E0,-2.018453181E-2,3.301636577E-1,7.819008082E-2
2.566875127E0,-2.381508471E-3,3.362423480E-1,6.758154929E-2
2.569396083E0,1.367285568E-2,3.399395049E-1,5.457484722E-2
2.571890265E0,3.087634034E-2,3.385405838E-1,4.226760939E-2
2.574385463E0,4.698066413E-2,3.319789469E-1,3.394065797E-2
2.576880743E0,6.131967902E-2,3.229025602E-1,2.561370470E-2
2.579370042E0,7.564203441E-2,3.119443059E-1,1.810279489E-2
2.581871180E0,8.913169801E-2,2.971223295E-1,1.219065860E-2
2.584339727E0,9.995673597E-2,2.807515264E-1,9.192955680E-3
2.586860276E0,1.090331152E-1,2.661127448E-1,5.395865068E-3
2.589355637E0,1.185091883E-1,2.484263033E-1,5.845520645E-3
2.591824631E0,1.235719770E-1,2.307565063E-1,2.048430266E-3
2.594345383E0,1.290344596E-1,2.144356817E-1,7.827335503E-4
2.596814866E0,1.314326227E-1,1.975985765E-1,2.997702977E-4
2.599321172E0,1.335476637E-1,1.800953299E-1,-2.031776356E-3
2.601830043E0,1.354295611E-1,1.659228504E-1,-4.763016943E-3
2.604325161E0,1.339806616E-1,1.513839960E-1,-6.311830133E-3
2.606805181E0,1.321320832E-1,1.388436109E-1,-9.709226899E-3
2.609314418E0,1.286680698E-1,1.257702857E-1,-1.270692982E-2
2.611810024E0,1.272358298E-1,1.138960570E-1,-1.823602617E-2
2.614305018E0,1.219232380E-1,1.037871316E-1,-2.098391950E-2
2.616773728E0,1.166272983E-1,9.379479289E-2,-2.717917226E-2
2.619293341E0,1.117310449E-1,8.353598416E-2,-3.297473118E-2
2.621789882E0,1.044199839E-1,7.475937903E-2,-4.063552618E-2
2.624283697E0,9.979020059E-2,6.501684338E-2,-4.801320657E-2
2.626797410E0,9.169639647E-2,5.637346953E-2,-5.619027466E-2
2.629248623E0,8.506814390E-2,4.931221157E-2,-6.558308005E-2
2.631768764E0,7.830666006E-2,4.053560272E-2,-7.349368185E-2
2.634264044E0,7.072913647E-2,3.094295599E-2,-8.380244672E-2
2.636766486E0,6.210241094E-2,2.258269489E-2,-9.157982469E-2
2.639253790E0,5.520769581E-2,1.405589562E-2,-1.008227393E-1
2.641746466E0,4.389969260E-2,5.429172888E-3,-1.095327288E-1
2.644222581E0,3.498985246E-2,-4.529862199E-3,-1.179762632E-1
2.646739222E0,2.566366643E-2,-1.530493889E-2,-1.274856478E-1
2.649234055E0,1.730340719E-2,-2.354862168E-2,-1.363288611E-1
2.651728359E0,8.526799269E-3,-3.299138695E-2,-1.454385519E-1
2.654200892E0,-3.430704353E-3,-3.907006234E-2,-1.545648873E-1
2.656718227E0,-1.312327664E-2,-4.689739645E-2,-1.622090340E-1
2.659213507E0,-2.346535213E-2,-5.284284055E-2,-1.694867909E-1
2.661701056E0,-3.287480772E-2,-5.758920312E-2,-1.772808135E-1
2.664203375E0,-4.093529657E-2,-6.276856363E-2,-1.848250329E-1
2.666674485E0,-4.738035798E-2,-6.541653723E-2,-1.931519955E-1
2.669168829E0,-5.434169248E-2,-6.564969569E-2,-1.981814653E-1
2.671663051E0,-5.957101658E-2,-6.656565517E-2,-2.048097253E-1
2.674157314E0,-6.421745569E-2,-6.308498979E-2,-2.091896981E-1
2.676651780E0,-6.606604159E-2,-5.948774889E-2,-2.162176520E-1
2.679157191E0,-6.763150543E-2,-5.334245786E-2,-2.194152027E-1
2.681642258E0,-6.689873338E-2,-4.496554285E-2,-2.234121263E-1
2.684133917E0,-6.559973210E-2,-3.390735015E-2,-2.267595679E-1
2.686652186E0,-6.098660082E-2,-2.448124066E-2,-2.295740843E-1
2.689153123E0,-5.793893337E-2,-1.170769520E-2,-2.297572643E-1
2.691647589E0,-5.329249427E-2,1.465543639E-3,-2.331047058E-1
2.694142218E0,-4.701397195E-2,1.648736559E-2,-2.335543633E-1
2.696637904E0,-4.088533670E-2,3.150918707E-2,-2.333378643E-1
2.699111415E0,-3.327450156E-2,4.559839144E-2,-2.329881340E-1
2.701648281E0,-2.781202085E-2,5.983747914E-2,-2.325051725E-1
2.704121913E0,-1.970157027E-2,7.177832723E-2,-2.318723202E-1
2.706617356E0,-1.242381334E-2,7.933920622E-2,-2.307065427E-1
2.709111741E0,-6.478368770E-3,8.516807109E-2,-2.282084525E-1
2.711582118E0,1.149119460E-3,8.766615391E-2,-2.255771458E-1
2.714076747E0,6.628253963E-3,8.734972775E-2,-2.231956273E-1
2.716596523E0,1.422243472E-2,8.316960186E-2,-2.199980766E-1
2.719091517E0,1.841921918E-2,7.487595826E-2,-2.160011530E-1
2.721586228E0,2.194984630E-2,6.340141594E-2,-2.115878612E-1
2.724072434E0,2.729574963E-2,4.867936298E-2,-2.086401135E-1
2.726547003E0,2.889452502E-2,3.135930374E-2,-2.016954422E-1
2.729046067E0,3.287480772E-2,1.119142398E-2,-1.959331930E-1
2.731566331E0,3.282484785E-2,-1.159111783E-2,-1.893715560E-1
2.734047614E0,3.424042836E-2,-3.560604900E-2,-1.822769940E-1
2.736530645E0,3.325784951E-2,-5.865505338E-2,-1.761150509E-1
2.739025600E0,3.252507746E-2,-8.197052032E-2,-1.684709042E-1
2.741544847E0,2.779536694E-2,-1.059188321E-1,-1.585951298E-1
2.744041265E0,2.428139374E-2,-1.278853416E-1,-1.504347175E-1
2.746546637E0,2.023449354E-2,-1.498185247E-1,-1.408254206E-1
2.749008999E0,1.433901209E-2,-1.688206345E-1,-1.303001493E-1
2.751499883E0,8.326952346E-3,-1.860907376E-1,-1.231056675E-1
2.754020514E0,1.415581908E-3,-2.010625899E-1,-1.109982729E-1
2.756515997E0,-5.778905004E-3,-2.149852514E-1,-1.011558175E-1
2.759010138E0,-1.385604870E-2,-2.243614048E-1,-9.291213751E-2
2.761482631E0,-2.073411085E-2,-2.337375581E-1,-8.306967467E-2
2.763983771E0,-2.944410406E-2,-2.379010320E-1,-7.417649031E-2
2.766495001E0,-3.600574285E-2,-2.396830022E-1,-6.596611440E-2
2.768990850E0,-4.291711375E-2,-2.381341904E-1,-5.802220479E-2
2.771484869E0,-5.102756619E-2,-2.339040935E-1,-5.007829145E-2
2.773965989E0,-5.520769581E-2,-2.238284796E-1,-4.216768593E-2
2.776428350E0,-6.296841055E-2,-2.109217048E-1,-3.585585579E-2
2.778969326E0,-6.789796799E-2,-1.932519078E-1,-3.139261156E-2
2.781465053E0,-7.199483365E-2,-1.746495068E-1,-2.311562002E-2
2.783959398E0,-7.742400467E-2,-1.530993432E-1,-1.946841553E-2
2.786446091E0,-8.162079006E-2,-1.288845688E-1,-1.305666100E-2
2.788924078E0,-8.378579468E-2,-1.016387790E-1,-8.776607923E-3
2.791444627E0,-8.838227391E-2,-7.715754211E-2,-2.348200651E-3
2.793938971E0,-9.241251647E-2,-4.921228811E-2,9.992342675E-4
2.796434007E0,-9.607637674E-2,-2.368185297E-2,6.744831335E-3
2.798929775E0,-9.839127213E-2,1.182427281E-3,1.157446392E-2
2.801398606E0,-1.041868255E-1,2.513074316E-2,1.680378988E-2
2.803918911E0,-1.073510721E-1,4.531527683E-2,1.965160854E-2
2.806414476E0,-1.117477044E-1,6.218568236E-2,2.409820072E-2
2.808906825E0,-1.150951385E-1,7.744065672E-2,2.869467810E-2
2.811403937E0,-1.183426455E-1,8.736638725E-2,3.435700387E-2
2.813874762E0,-1.224228516E-1,9.301205724E-2,3.777105734E-2
2.816393602E0,-1.280185729E-1,9.427775443E-2,4.255072773E-2
2.818889573E0,-1.311161965E-1,9.124674648E-2,4.679747298E-2
2.821383470E0,-1.337141991E-1,8.448526263E-2,5.159379542E-2
2.823878709E0,-1.381940991E-1,7.399329543E-2,5.678981543E-2
2.826358730E0,-1.405756176E-1,6.055359915E-2,6.106986851E-2
2.828867194E0,-1.436399221E-1,4.539854452E-2,6.826435775E-2
2.831363573E0,-1.445892006E-1,2.647970803E-2,7.204478979E-2
2.833857997E0,-1.460714042E-1,8.077143691E-3,7.527565211E-2
2.836356655E0,-1.459714770E-1,-1.150784828E-2,8.235356212E-2
2.838805548E0,-1.461213678E-1,-3.070980124E-2,8.613399416E-2
2.841342983E0,-1.446558237E-1,-4.804651439E-2,9.147989750E-2
2.843838873E0,-1.425074637E-1,-6.380110979E-2,9.484399110E-2
2.846312181E0,-1.387603283E-1,-7.953905314E-2,1.007228196E-1
2.848831672E0,-1.360790581E-1,-9.316194057E-2,1.036705598E-1
2.851301520E0,-1.321487278E-1,-1.041202098E-1,1.076841503E-1
2.853777187E0,-1.291343719E-1,-1.116144732E-1,1.104820073E-1
2.856312669E0,-1.251707524E-1,-1.168271452E-1,1.157945991E-1
2.858808559E0,-1.191753447E-1,-1.201912314E-1,1.201745793E-1
2.861277146E0,-1.157113314E-1,-1.222063527E-1,1.233721301E-1
2.863797533E0,-1.112980470E-1,-1.207574606E-1,1.265363693E-1
2.866266567E0,-1.076508388E-1,-1.173101068E-1,1.308996975E-1
2.868779344E0,-1.026713252E-1,-1.143790185E-1,1.361956298E-1
2.871257534E0,-9.714222699E-2,-1.086833850E-1,1.401426047E-1
2.873751308E0,-9.549348801E-2,-1.041368693E-1,1.450221986E-1
2.876247972E0,-9.009762853E-2,-9.789165109E-2,1.481864452E-1
2.878742926E0,-8.643376827E-2,-9.149654955E-2,1.513506919E-1
2.881237067E0,-8.248679340E-2,-8.351933211E-2,1.550312042E-1
2.883731451E0,-7.895616442E-2,-7.739069313E-2,1.581787914E-1
2.886231004E0,-7.437633723E-2,-7.274425775E-2,1.604270637E-1
2.888721198E0,-6.936351210E-2,-6.609934568E-2,1.627919227E-1
2.891222703E0,-6.786466390E-2,-6.198583543E-2,1.623755693E-1
2.893706224E0,-6.221899018E-2,-5.802220479E-2,1.643407345E-1
2.896207770E0,-5.857178196E-2,-5.430838466E-2,1.636745781E-1
2.898703945E0,-5.440830812E-2,-4.981182888E-2,1.600773335E-1
2.901222093E0,-5.066118017E-2,-4.944544286E-2,1.595444083E-1
2.903719123E0,-4.623124003E-2,-4.669754952E-2,1.568797827E-1
2.906211472E0,-4.263399541E-2,-4.753024504E-2,1.550312042E-1
2.908706834E0,-3.968625516E-2,-4.571496695E-2,1.498518288E-1
2.911175828E0,-3.500650823E-2,-4.508212209E-2,1.472038627E-1
2.913690274E0,-2.887787111E-2,-4.649770260E-2,1.423076093E-1
2.916191087E0,-2.676282451E-2,-4.812978581E-2,1.379442960E-1
2.918686367E0,-2.171669155E-2,-5.191022158E-2,1.346468180E-1
2.921180956E0,-1.961830072E-2,-5.489126965E-2,1.293508857E-1
2.923676357E0,-1.578790136E-2,-5.867170542E-2,1.269860268E-1
2.926171352E0,-1.488859113E-2,-6.256871670E-2,1.216900796E-1
2.928682258E0,-1.332312357E-2,-6.779804826E-2,1.187923029E-1
2.931160447E0,-1.084169187E-2,-7.276090980E-2,1.152283698E-1
2.933655727E0,-1.302335318E-2,-7.809016109E-2,1.116810888E-1
2.936150926E0,-1.294008363E-2,-8.265332878E-2,1.070512980E-1
2.938645595E0,-1.592113264E-2,-8.651703596E-2,1.008393914E-1
2.941140184E0,-1.795290969E-2,-9.013093263E-2,9.620960802E-2
2.943640957E0,-2.224961668E-2,-9.171305597E-2,9.026416391E-2
2.946130622E0,-2.518070489E-2,-9.078043699E-2,8.655034006E-2
2.948601894E0,-2.801186778E-2,-9.146324545E-2,7.794027776E-2
2.951119961E0,-3.347434849E-2,-8.863208443E-2,7.144524902E-2
2.953614875E0,-3.705493733E-2,-8.530130237E-2,6.534992158E-2
2.956110317E0,-4.133499041E-2,-8.328618109E-2,5.698966235E-2
2.958604661E0,-4.541520029E-2,-7.609169185E-2,4.954536632E-2
2.961074225E0,-5.059456453E-2,-6.979651749E-2,4.225095734E-2
2.963594651E0,-5.186025798E-2,-6.221899018E-2,3.507312387E-2
2.966089728E0,-5.365888029E-2,-5.235987529E-2,2.762882784E-2
2.968558682E0,-5.599042773E-2,-4.183460772E-2,1.871898957E-2
2.971079475E0,-5.737270042E-2,-2.996037528E-2,1.232388988E-2
2.973574632E0,-5.407522991E-2,-1.813610271E-2,7.377679925E-3
2.976069709E0,-5.425842106E-2,-6.961332168E-3,4.663093423E-4
2.978538703E0,-5.067783222E-2,6.611600053E-3,-6.878062617E-3
2.981036098E0,-4.857943952E-2,1.898545213E-2,-1.169104129E-2
2.983520392E0,-4.433269426E-2,3.199215233E-2,-1.875229739E-2
2.986049282E0,-4.141826183E-2,4.449923337E-2,-2.316558175E-2
2.988544277E0,-3.718816862E-2,5.592381209E-2,-2.902775630E-2
2.991039516E0,-3.257503733E-2,6.613265723E-2,-3.382408246E-2
2.993534308E0,-2.714586444E-2,7.635815442E-2,-3.717151657E-2
2.996021775E0,-2.388169989E-2,8.431871980E-2,-4.263399541E-2
2.998522671E0,-1.996803097E-2,8.988112211E-2,-4.516538978E-2
3.001019131E0,-1.390601043E-2,9.609302878E-2,-4.876263440E-2
3.003513353E0,-9.342840873E-3,9.884092212E-2,-5.247645453E-2
3.006009284E0,-4.946209956E-3,9.919065982E-2,-5.658996850E-2
3.008503099E0,-5.495788646E-4,9.834130853E-2,-6.028713658E-2
3.010998054E0,4.496554378E-3,9.481067955E-2,-6.360126287E-2
3.013492641E0,8.343606256E-3,9.063055366E-2,-6.556642056E-2
3.015988695E0,1.267362200E-2,8.351933211E-2,-6.886389852E-2
3.018482714E0,1.756986976E-2,7.759054005E-2,-7.109551877E-2
3.020977505E0,2.298238873E-2,7.034609467E-2,-7.226129621E-2
3.023473761E0,2.571362816E-2,6.070348248E-2,-7.540888339E-2
3.025968594E0,3.122607246E-2,5.077775568E-2,-7.737404108E-2
3.028477830E0,3.327450156E-2,4.021918029E-2,-7.852315903E-2
3.030957689E0,3.735470772E-2,3.255838528E-2,-8.155417442E-2
3.033459195E0,4.086868092E-2,2.304900438E-2,-8.403560519E-2
3.035922411E0,4.308365285E-2,1.488859113E-2,-8.455187827E-2
3.038417527E0,4.726378247E-2,4.696401302E-3,-8.756623417E-2
3.040912360E0,5.081106350E-2,-1.998468535E-3,-8.806584775E-2
3.043407722E0,5.245979875E-2,-1.135796309E-2,-8.963131905E-2
3.045902106E0,5.495788530E-2,-1.685375161E-2,-8.961465955E-2
3.048397467E0,5.903809145E-2,-2.328215912E-2,-8.986447006E-2
3.050917121E0,6.140294671E-2,-2.891117893E-2,-8.971458673E-2
3.053412441E0,6.336810440E-2,-3.439031169E-2,-8.836562186E-2
3.055907396E0,6.628254056E-2,-3.747128695E-2,-8.636715263E-2
3.058402595E0,6.676550210E-2,-4.270061105E-2,-8.475172520E-2
3.060896979E0,6.741500646E-2,-4.536523670E-2,-8.235356212E-2
3.063370286E0,6.819774210E-2,-4.802986234E-2,-7.995539904E-2
3.065886929E0,6.778139621E-2,-5.094429478E-2,-7.664126903E-2
3.068356452E0,6.936351210E-2,-5.360892043E-2,-7.384341210E-2
3.070876553E0,6.801454723E-2,-5.652335286E-2,-6.894716620E-2
3.073372158E0,6.624923646E-2,-6.037040427E-2,-6.641577184E-2
3.075840787E0,6.353464723E-2,-6.500019133E-2,-6.161944941E-2
3.078361375E0,6.005398184E-2,-6.788131595E-2,-5.683977902E-2
3.080856533E0,5.893816799E-2,-7.359360904E-2,-5.285949260E-2
3.083352017E0,5.462480709E-2,-7.807350904E-2,-4.872932658E-2
3.085846767E0,5.017821491E-2,-8.470176160E-2,-4.434935004E-2
3.088341519E0,4.584819824E-2,-9.093032032E-2,-4.048564285E-2
3.090836717E0,4.006929323E-2,-9.645941854E-2,-3.662193567E-2
3.093331508E0,3.800421208E-2,-1.041701734E-1,-3.380742669E-2
3.095825894E0,3.032676131E-2,-1.107817739E-1,-3.220865130E-2
3.098321052E0,2.453120239E-2,-1.177930683E-1,-3.019353002E-2
3.100816251E0,1.900210604E-2,-1.240216270E-1,-2.871133201E-2
3.103310675E0,1.482197549E-2,-1.294507980E-1,-2.564701252E-2
3.105780362E0,1.037538238E-2,-1.330147386E-1,-2.736236528E-2
3.108300992E0,6.345137954E-3,-1.355294734E-1,-2.642974630E-2
3.110795498E0,2.997702919E-3,-1.360290945E-1,-2.603005245E-2
3.113264126E0,-1.548813190E-3,-1.366619468E-1,-2.801186778E-2
3.115785285E0,-2.864471637E-3,-1.349299401E-1,-2.854479291E-2
3.118280280E0,-4.446592648E-3,-1.317157298E-1,-3.014356829E-2
3.120775845E0,-3.464012174E-3,-1.269194037E-1,-3.055991605E-2
3.123270840E0,-3.713820828E-3,-1.235886291E-1,-3.267496079E-2
3.125765591E0,-2.181661548E-3,-1.167938337E-1,-3.257503733E-2
3.128236619E0,7.993874606E-4,-1.113480106E-1,-3.390735015E-2
3.130729662E0,3.930321429E-3,-1.029877439E-1,-3.632216528E-2
3.133250618E0,7.077909540E-3,-9.432771802E-2,-3.555608541E-2
3.135742194E0,1.235719770E-2,-8.583422750E-2,-3.558939323E-2
3.138239956E0,1.658728905E-2,-7.597511262E-2,-3.352431208E-2
3.140730639E0,2.239950188E-2,-6.774808466E-2,-3.394065797E-2
3.143243211E0,2.661293931E-2,-5.977086350E-2,-3.157580271E-2
3.145725267E0,3.364088759E-2,-5.059456453E-2,-2.896114066E-2
3.148219408E0,3.837059811E-2,-4.423277080E-2,-2.806182951E-2
3.150715054E0,4.431604221E-2,-3.798755631E-2,-2.476435713E-2
3.153210008E0,5.009494722E-2,-3.493989259E-2,-1.895214431E-2
3.155704841E0,5.520769581E-2,-3.097626381E-2,-1.605436392E-2
3.158199226E0,6.017055735E-2,-2.952737361E-2,-1.234054379E-2
3.160668626E0,6.525000185E-2,-3.021018393E-2,-5.196018144E-3
3.163168383E0,7.137863338E-2,-3.277488425E-2,1.165773356E-4
3.165684618E0,7.537557185E-2,-3.412384912E-2,5.945444107E-3
3.168179206E0,8.187059313E-2,-4.175134003E-2,1.179096475E-2
3.170648363E0,8.758288622E-2,-4.591481388E-2,1.816941053E-2
3.173143440E0,9.314528853E-2,-5.340907350E-2,2.348200604E-2
3.175664313E0,1.009726226E-1,-5.932120979E-2,2.866137028E-2
3.178184577E0,1.061353385E-1,-6.786466390E-2,3.532293066E-2
3.180628588E0,1.126137078E-1,-7.484264672E-2,3.970291093E-2
3.183148647E0,1.188256145E-1,-8.395233750E-2,4.358327016E-2
3.185644212E0,1.257036775E-1,-9.239586443E-2,4.744697362E-2
3.188138353E0,1.305832714E-1,-1.017553583E-1,5.131068081E-2
3.190633552E0,1.375945657E-1,-1.103487760E-1,5.465811491E-2
3.193128791E0,1.420744658E-1,-1.183759570E-1,5.705627799E-2
3.195597419E0,1.458882093E-1,-1.249375939E-1,5.985413492E-2
3.198134732E0,1.519835293E-1,-1.308497339E-1,6.120309979E-2
3.200613125E0,1.554475427E-1,-1.330147386E-1,6.293510646E-2
3.203097907E0,1.575792432E-1,-1.339473575E-1,6.373449415E-2
3.205602872E0,1.567798555E-1,-1.336808950E-1,6.320156902E-2
3.208071865E0,1.578956693E-1,-1.279519498E-1,6.291845441E-2
3.210592577E0,1.585951298E-1,-1.238217801E-1,6.343472004E-2
3.213087613E0,1.566466242E-1,-1.167438701E-1,6.315160543E-2
3.215583462E0,1.533991247E-1,-1.063018739E-1,6.231891364E-2
3.218078335E0,1.508011073E-1,-9.655933827E-2,6.070348248E-2
3.220572558E0,1.470373273E-1,-8.410222083E-2,6.105321646E-2
3.223067716E0,1.413916498E-1,-7.206144929E-2,5.997071043E-2
3.225562669E0,1.356127411E-1,-6.000401825E-2,6.058690697E-2
3.228046516E0,1.281018406E-1,-4.819640145E-2,5.948774889E-2
3.230552050E0,1.204576939E-1,-3.507312387E-2,5.812212825E-2
3.233025235E0,1.146621332E-1,-2.541385964E-2,5.810547248E-2
3.235545214E0,1.056523696E-1,-1.733671501E-2,5.807216465E-2
3.238036832E0,9.785834700E-2,-7.394333836E-3,5.857178196E-2
3.240531867E0,8.989778161E-2,-5.329249543E-4,5.802220479E-2
3.243027351E0,8.366921544E-2,6.461714860E-3,5.827201158E-2
3.245497403E0,7.394333929E-2,9.875766002E-3,5.838859081E-2
3.248016527E0,6.689873338E-2,1.380608696E-2,5.983747914E-2
3.250511929E0,5.890486017E-2,1.573793963E-2,5.983747914E-2
3.253006843E0,5.262633786E-2,1.592113264E-2,6.208575889E-2
3.255502164E0,4.606470093E-2,1.330646966E-2,6.250210851E-2
3.257996955E0,4.016921669E-2,1.109150052E-2,6.435068697E-2
3.260492317E0,3.532293066E-2,6.345137954E-3,6.569965184E-2
3.262960579E0,3.006029874E-2,6.495022681E-4,6.863074005E-2
3.265481940E0,2.494755015E-2,-5.429172888E-3,7.169505954E-2
3.267976976E0,2.073411085E-2,-1.247377507E-2,7.119544595E-2
3.270470833E0,1.895214431E-2,-1.965160854E-2,7.294410467E-2
3.272940925E0,1.685375161E-2,-3.002699092E-2,7.680781186E-2
3.275435228E0,1.398927998E-2,-3.762117028E-2,7.710757852E-2
3.277930631E0,1.310662273E-2,-4.668089375E-2,7.885623723E-2
3.280405158E0,1.197415777E-2,-5.520769581E-2,8.007197082E-2
3.282920417E0,1.428905036E-2,-6.536657363E-2,7.970558852E-2
3.285414843E0,1.317323837E-2,-7.229460031E-2,7.985547185E-2
3.287933683E0,1.510509197E-2,-8.032178134E-2,8.002201468E-2
3.290404670E0,1.931853034E-2,-8.714988083E-2,8.123774827E-2
3.292900316E0,2.088399604E-2,-9.211274981E-2,7.872300595E-2
3.295400886E0,2.256604098E-2,-9.745865315E-2,7.822339237E-2
3.297890225E0,2.852813900E-2,-1.036539003E-1,7.759054005E-2
3.300384610E0,3.249176964E-2,-1.090331152E-1,7.614165545E-2
3.302879768E0,3.607235849E-2,-1.125304326E-1,7.495922595E-2
3.305374111E0,4.056891054E-2,-1.171102598E-1,7.470941544E-2
3.307869961E0,4.653101042E-2,-1.222396642E-1,7.339376211E-2
3.310365038E0,5.026148632E-2,-1.240049750E-1,7.141194493E-2
3.312870165E0,5.625689030E-2,-1.264531016E-1,7.022951543E-2
3.315354743E0,5.878828466E-2,-1.274190247E-1,7.089567184E-2
3.317850146E0,6.371784210E-2,-1.282517165E-1,7.049597800E-2
3.320346199E0,6.836427748E-2,-1.301669180E-1,6.719850749E-2
3.322839159E0,7.266099006E-2,-1.286014467E-1,6.958001107E-2
3.325334195E0,7.545883954E-2,-1.282350719E-1,6.653235108E-2
3.327829150E0,7.895616442E-2,-1.261200160E-1,6.559973210E-2
3.330323981E0,8.057159185E-2,-1.252040565E-1,6.518338621E-2
3.332819506E0,8.311963826E-2,-1.226893142E-1,6.491692364E-2
3.335314338E0,8.351933211E-2,-1.232388988E-1,6.306833774E-2
3.337808804E0,8.446860313E-2,-1.207241565E-1,6.120309979E-2
3.340293179E0,8.421880007E-2,-1.185758039E-1,6.133633107E-2
3.342780606E0,8.328618109E-2,-1.192419603E-1,5.973755568E-2
3.345285489E0,8.142094314E-2,-1.172434911E-1,5.642342940E-2
3.347776781E0,7.902278006E-2,-1.164274514E-1,5.549081042E-2
3.350271614E0,7.569199800E-2,-1.161443293E-1,5.324253440E-2
3.352767016E0,7.181163877E-2,-1.163941398E-1,5.099425837E-2
3.355261848E0,6.899712980E-2,-1.166439503E-1,4.596477747E-2
3.357756802E0,6.498353928E-2,-1.163608357E-1,4.556508362E-2
3.360251879E0,5.912136286E-2,-1.143124029E-1,4.278388247E-2
3.362746752E0,5.350899696E-2,-1.137461662E-1,4.145156965E-2
3.365241747E0,4.884590209E-2,-1.129134744E-1,3.773774952E-2
3.367742724E0,4.379976913E-2,-1.092829257E-1,3.812078759E-2
3.370231208E0,3.807082772E-2,-1.051027924E-1,3.400727361E-2
3.372726366E0,3.355761990E-2,-1.020051688E-1,3.347434849E-2
3.375242073E0,2.866137028E-2,-9.704229981E-2,3.107618727E-2
3.377737312E0,2.451454848E-2,-9.607637674E-2,2.747894265E-2
3.380232225E0,1.841921918E-2,-9.136331826E-2,2.654632367E-2
3.382726692E0,1.470539812E-2,-8.719984442E-2,2.454785630E-2
3.385202604E0,1.274023764E-2,-8.280321211E-2,2.174999937E-2
3.387716519E0,9.292879142E-3,-7.943912596E-2,2.186657675E-2
3.390211840E0,8.243682794E-3,-7.557541877E-2,1.920195296E-2
3.392705859E0,7.760719862E-3,-7.049597800E-2,1.945176162E-2
3.395201382E0,7.261102553E-3,-6.676550210E-2,1.758652367E-2
3.397696703E0,9.692572989E-3,-6.158614159E-2,1.505513024E-2
3.400182014E0,8.526799269E-3,-5.837193504E-2,1.465543639E-2
3.402702318E0,7.744065952E-3,-5.637346953E-2,1.372281741E-2
3.405197395E0,8.693338372E-3,-5.277622491E-2,1.343970094E-2
3.407692919E0,9.242917411E-3,-5.131068081E-2,1.357293222E-2
3.410187752E0,1.247377507E-2,-4.841290042E-2,1.197415777E-2
3.412682095E0,1.437231991E-2,-4.523200542E-2,1.050861366E-2
3.415177294E0,1.438897382E-2,-4.321688414E-2,1.075842232E-2
3.417672005E0,1.532159280E-2,-4.336676747E-2,9.309533052E-3
3.420142911E0,1.866902784E-2,-4.260068759E-2,8.643376641E-3
3.422661588E0,2.120042033E-2,-4.328349978E-2,7.444295567E-3
3.425157356E0,2.198315412E-2,-4.436600208E-2,7.444295567E-3
3.427626797E0,2.464777976E-2,-4.679747298E-2,5.862174556E-3
3.430146695E0,2.716251835E-2,-4.896248132E-2,3.880359931E-3
3.432641650E0,2.792859823E-2,-5.189356580E-2,4.563170020E-3
3.435136482E0,2.857810073E-2,-5.497454107E-2,2.048430266E-3
3.437605191E0,3.105953336E-2,-6.047032773E-2,3.264165251E-3
3.440126717E0,3.144257143E-2,-6.393434107E-2,3.147588111E-3
3.442621631E0,3.100957163E-2,-6.753158569E-2,3.680513008E-3
3.445116910E0,3.190888092E-2,-7.181163877E-2,2.764548175E-3
3.447611539E0,3.160911053E-2,-7.542553544E-2,2.914433368E-3
3.450106331E0,3.119276464E-2,-7.809016109E-2,2.781202085E-3
3.452575447E0,3.194218874E-2,-8.248679340E-2,2.797855996E-3
3.455095955E0,3.129268810E-2,-8.088801801E-2,1.465543639E-3
3.457591479E0,3.085968643E-2,-8.488495648E-2,3.330780892E-3
3.460060188E0,2.899444848E-2,-8.473506570E-2,2.414816292E-3
3.462580045E0,2.806182951E-2,-8.431871980E-2,4.529862199E-3
3.465046394E0,2.606336027E-2,-8.350268006E-2,4.263399635E-3
3.467545051E0,2.419812419E-2,-8.281987160E-2,5.312595516E-3
3.470065315E0,2.140026726E-2,-8.185394108E-2,5.712289363E-3
3.472559781E0,2.010126226E-2,-7.744065672E-2,7.427641656E-3
3.475055753E0,1.693702117E-2,-7.381010801E-2,7.410987746E-3
3.477550137E0,1.562136319E-2,-7.032944262E-2,8.060489781E-3
3.480046028E0,1.352297049E-2,-6.669888645E-2,8.976454847E-3
3.482539803E0,1.102488488E-2,-6.228560582E-2,8.426875807E-3
3.485009691E0,8.660030551E-3,-5.732274055E-2,1.067515276E-2
3.487510465E0,5.212672055E-3,-5.369218811E-2,1.185758039E-2
3.490001757E0,2.864471637E-3,-4.832963273E-2,1.117477007E-2
3.492520027E0,-1.831929549E-4,-4.418281093E-2,9.709226899E-3
3.495015348E0,-2.031776356E-3,-4.121841490E-2,1.129134744E-2
3.497484261E0,-4.146822263E-3,-3.827067465E-2,1.020884328E-2
3.500005338E0,-8.543453179E-3,-3.768778592E-2,1.272358373E-2
3.502492480E0,-8.660030551E-3,-3.583920375E-2,9.142993949E-3
3.504969368E0,-1.320654619E-2,-3.527297080E-2,9.675919078E-3
3.507489347E0,-1.507178415E-2,-3.445692733E-2,8.343606256E-3
3.509984911E0,-1.720348373E-2,-3.430704400E-2,6.628253963E-3
3.512479296E0,-1.973487809E-2,-3.375746682E-2,5.179364234E-3
3.514974007E0,-2.145022899E-2,-3.122607246E-2,4.230091814E-3
3.517470141E0,-2.146688290E-2,-3.189222887E-2,3.713820828E-3
3.519987027E0,-2.278254181E-2,-2.909437194E-2,-3.996937303E-4
3.522458992E0,-2.518070489E-2,-2.827833034E-2,-1.665390482E-5
3.524954556E0,-2.489758842E-2,-2.747894265E-2,-1.598774921E-3
3.527448657E0,-2.543051355E-2,-2.681278624E-2,-2.131699817E-3
3.529944506E0,-2.473104931E-2,-2.254938707E-2,-3.214203520E-3
3.532423429E0,-2.418147027E-2,-2.081738040E-2,-3.480666084E-3
3.534908292E0,-2.469774149E-2,-1.786964014E-2,-1.765313908E-3
3.537403043E0,-2.454785630E-2,-1.722013764E-2,-3.097626381E-3
3.539923348E0,-2.266596444E-2,-1.455551293E-2,-2.831163816E-3
3.542418586E0,-2.090064995E-2,-1.242381334E-2,-1.648736536E-3
3.544913745E0,-2.010126226E-2,-1.190754212E-2,-3.114280291E-3
3.547383268E0,-1.672052033E-2,-8.460183628E-3,-7.327718195E-4
3.549904060E0,-1.645405777E-2,-6.728177425E-3,-8.826569538E-4
3.552398201E0,-1.535490062E-2,-4.196783993E-3,-8.326952229E-5
3.554892912E0,-1.440562773E-2,-2.331546741E-3,-9.992343257E-5
3.557388313E0,-1.119142398E-2,-1.965160714E-3,-2.331546712E-4
3.559861987E0,-1.022549719E-2,1.099157729E-3,1.348966267E-3
3.562377815E0,-8.210374974E-3,2.298238920E-3,2.015122445E-3
3.564872811E0,-6.994639989E-3,5.212672055E-3,1.598774921E-3
3.567368375E0,-4.696401302E-3,7.877296768E-3,3.713820828E-3
3.569833707E0,-1.881891279E-3,8.793261833E-3,4.629785661E-3
3.572332406E0,-1.065849909E-3,1.025880501E-2,4.496554378E-3
3.574853197E0,1.598774921E-3,1.022549719E-2,4.763016943E-3
3.577347908E0,4.696401302E-3,1.302335318E-2,6.345137954E-3
3.579842863E0,7.277756464E-3,1.607101783E-2,6.994639989E-3
3.582337776E0,8.343606256E-3,1.565467007E-2,7.527565118E-3
3.584820035E0,1.009226590E-2,1.725344546E-2,8.576761000E-3
3.587308927E0,1.235719770E-2,1.763648540E-2,9.775842540E-3
3.589822436E0,1.518836152E-2,1.961830072E-2,9.359494783E-3
3.592317635E0,1.547147799E-2,2.095061168E-2,9.892419912E-3
3.594811775E0,1.705359854E-2,1.986810938E-2,9.359494783E-3
3.597307503E0,1.853579655E-2,2.160011418E-2,1.094161533E-2
3.599782519E0,1.866902784E-2,2.120042033E-2,1.095826924E-2
3.602296761E0,1.868568175E-2,2.146688290E-2,1.240715943E-2
3.604791960E0,1.800287142E-2,2.106718905E-2,1.042534411E-2
3.607287239E0,1.653732732E-2,2.135030553E-2,1.174100302E-2
3.609781949E0,1.748660021E-2,2.188323066E-2,1.280685235E-2
3.612234383E0,1.507178415E-2,2.136695944E-2,1.320654619E-2
3.614751472E0,1.240715943E-2,2.258269489E-2,1.320654619E-2
3.617267179E0,8.909839205E-3,2.048430219E-2,1.254039072E-2
3.619740364E0,7.577526849E-3,2.021783963E-2,1.254039072E-2
3.622256111E0,6.378445774E-3,2.010126226E-2,1.189088821E-2
3.624751188E0,1.415581908E-3,1.786964014E-2,1.229058206E-2
3.627241219E0,6.661561929E-5,1.588782482E-2,1.348966267E-2
3.629741504E0,-1.831929549E-3,1.269027591E-2,1.310662273E-2
3.632236295E0,-4.246745724E-3,1.084169187E-2,1.377277914E-2
3.634730599E0,-5.745597184E-3,7.394333836E-3,1.563801616E-2
3.637200692E0,-7.644142490E-3,5.545750260E-3,1.550478581E-2
3.639720466E0,-7.410987746E-3,9.992342675E-4,1.618759520E-2
3.642216235E0,-6.744831335E-3,1.998468651E-4,1.658728905E-2
3.644710376E0,-6.511676591E-3,-2.997702919E-3,1.620424911E-2
3.647206021E0,-4.113514442E-3,-5.678981543E-3,1.793625578E-2
3.649700895E0,-3.597243456E-3,-6.744831335E-3,2.058422565E-2
3.652170133E0,-1.332312357E-3,-8.360260166E-3,2.138361335E-2
3.654664680E0,9.492725949E-4,-6.644907873E-3,2.098391950E-2
3.657185799E0,5.745597184E-3,-7.877296768E-3,2.098391950E-2
3.659680550E0,7.744065952E-3,-8.293644525E-3,2.218300104E-2
3.662174487E0,1.124138571E-2,-6.445060950E-3,2.441462502E-2
3.664667936E0,1.687040552E-2,-5.162710324E-3,2.468108758E-2
3.667139127E0,2.036772482E-2,-2.381508471E-3,2.401493117E-2
3.669659717E0,2.479766496E-2,7.827335503E-4,2.544716746E-2
3.672129565E0,2.694601752E-2,1.315658446E-3,2.757886611E-2
3.674624275E0,3.135930374E-2,3.014356829E-3,2.782867476E-2
3.677145190E0,3.525631502E-2,5.112748593E-3,2.689605579E-2
3.679639452E0,3.662193567E-2,8.709992282E-3,2.847817726E-2
3.682135058E0,4.185126349E-2,1.054192148E-2,2.792859823E-2
3.684630013E0,4.308365285E-2,1.345635485E-2,2.806182951E-2
3.687112476E0,4.403292388E-2,1.532159280E-2,2.937748842E-2
3.689619148E0,4.591481388E-2,1.796956360E-2,2.817840688E-2
3.692114429E0,4.779670760E-2,1.810279489E-2,2.884456329E-2
3.694611214E0,4.792993888E-2,1.890218258E-2,2.909437194E-2
3.697104622E0,4.621458426E-2,2.051761001E-2,2.844486944E-2
3.699598966E0,4.554842785E-2,2.131699771E-2,2.829498425E-2
3.702094531E0,4.621458426E-2,2.118376642E-2,2.989375964E-2
3.704562426E0,4.514873773E-2,2.066749521E-2,3.042668477E-2
3.707083748E0,4.473238811E-2,1.958499290E-2,2.911102585E-2
3.709578947E0,4.195118695E-2,2.121707425E-2,3.095960990E-2
3.712074267E0,3.912002221E-2,1.883556694E-2,2.989375964E-2
3.714562630E0,3.655532002E-2,1.538820844E-2,2.924425714E-2
3.717063810E0,3.758786246E-2,1.217400469E-2,2.859475464E-2
3.719533008E0,3.610566631E-2,1.045865193E-2,3.019353002E-2
3.722053719E0,3.394065797E-2,7.794027682E-3,2.807848342E-2
3.724548633E0,3.244180605E-2,4.463246558E-3,2.729574963E-2
3.727017953E0,3.362423554E-2,5.828866852E-4,2.731240354E-2
3.729537646E0,3.157580271E-2,-2.614662983E-3,2.441462502E-2
3.732012866E0,3.087634034E-2,-7.277756464E-3,2.429804765E-2
3.734502206E0,3.139261156E-2,-8.493491448E-3,2.229957841E-2
3.737023282E0,3.215869144E-2,-1.250708289E-2,2.140026726E-2
3.739498462E0,3.267496079E-2,-1.423908863E-2,2.153349854E-2
3.742013192E0,3.572262451E-2,-1.800287142E-2,1.955168508E-2
3.744508308E0,3.439031169E-2,-1.800287142E-2,1.888552867E-2
3.747003222E0,3.570597246E-2,-1.975153200E-2,1.810279489E-2
3.749498177E0,3.675516695E-2,-2.083403431E-2,1.545482408E-2
3.751989836E0,3.767113388E-2,-2.364854515E-2,1.520501543E-2
3.754487475E0,3.940314054E-2,-2.393166162E-2,1.360624004E-2
3.756982918E0,4.125172272E-2,-2.541385964E-2,1.175765693E-2
3.759460742E0,4.033575580E-2,-2.448124066E-2,1.004230417E-2
3.761972338E0,4.178464785E-2,-2.543051355E-2,8.843223564E-3
3.764467782E0,4.178464785E-2,-2.598009072E-2,7.394333836E-3
3.766962736E0,4.113514349E-2,-2.318223566E-2,5.662327632E-3
3.769448697E0,4.098526016E-2,-2.451454848E-2,2.214969369E-3
3.771944303E0,4.100191221E-2,-2.333212085E-2,1.682044356E-3
3.774447233E0,3.685509041E-2,-2.329881303E-2,-1.665390446E-4
3.776942716E0,3.725478426E-2,-2.263265662E-2,-1.249042805E-3
3.779436776E0,3.538954630E-2,-2.274923399E-2,-2.031776356E-3
3.781932259E0,3.204211220E-2,-2.299904265E-2,-3.897013841E-3
3.784427214E0,2.844486944E-2,-2.070080303E-2,-5.878828466E-3
3.786914355E0,2.549712919E-2,-2.174999937E-2,-6.544984411E-3
3.789416512E0,2.376512252E-2,-2.174999937E-2,-7.594180759E-3
3.791911955E0,1.975153200E-2,-2.145022899E-2,-7.993874140E-3
3.794406217E0,1.615428738E-2,-2.101722732E-2,-8.127105422E-3
3.796901904E0,1.295673754E-2,-2.073411085E-2,-8.660030551E-3
3.799394825E0,9.209609590E-3,-2.136695944E-2,-9.992342442E-3
3.801890958E0,6.794793066E-3,-2.135030553E-2,-9.725880809E-3
3.804386239E0,3.597243456E-3,-2.051761001E-2,-9.592649527E-3
3.806881519E0,9.326186846E-4,-1.916864514E-2,-1.052526757E-2
3.809376595E0,-2.414816292E-3,-2.048430219E-2,-1.024215110E-2
3.811871346E0,-3.197549842E-3,-1.846918091E-2,-1.092496142E-2
3.814366341E0,-5.212672055E-3,-1.871898957E-2,-1.104153879E-2
3.816861500E0,-6.145291030E-3,-1.858575828E-2,-9.992342442E-3
3.819311002E0,-6.944678258E-3,-1.816941053E-2,-1.079173014E-2
3.821850635E0,-6.128637120E-3,-1.738667674E-2,-9.725880809E-3
3.824345793E0,-7.327718195E-3,-1.776971668E-2,-8.543453179E-3
3.826849943E0,-6.528330501E-3,-1.710356027E-2,-8.410221897E-3
3.829290495E0,-7.194486912E-3,-1.748660021E-2,-6.012059748E-3
3.831830168E0,-5.329249427E-3,-1.803617924E-2,-6.678215694E-3
3.834325773E0,-5.845520645E-3,-1.617094129E-2,-7.344372105E-3
3.836820524E0,-4.246745724E-3,-1.657063514E-2,-4.829632584E-3
3.839315926E0,-5.162710440E-4,-1.753656194E-2,-6.028713658E-3
3.841810717E0,-1.582121011E-3,-1.871898957E-2,-3.497319994E-3
3.844325122E0,1.348966267E-3,-1.808614098E-2,-4.030244891E-3
3.846799894E0,2.148353728E-3,-1.821937226E-2,-4.829632584E-3
3.849295460E0,4.546516109E-3,-1.985145546E-2,-5.212672055E-3
3.851767830E0,3.730474738E-3,-2.063418739E-2,-4.429938737E-3
3.854285165E0,4.929556046E-3,-2.184992284E-2,-3.897013841E-3
3.856754485E0,7.077909540E-3,-2.133365162E-2,-4.812978674E-3
3.859249153E0,8.676684462E-3,-2.161676809E-2,-5.595711991E-3
3.861770272E0,7.577526849E-3,-2.388169989E-2,-4.929556046E-3
3.864264291E0,1.025880501E-2,-2.414816245E-2,-1.748659997E-3
3.866734383E0,1.039203629E-2,-2.483097278E-2,-3.613897366E-3
3.869254850E0,1.037538238E-2,-2.563035861E-2,-2.015122445E-3
3.871749724E0,1.199081168E-2,-2.549712919E-2,-8.160413126E-4
3.874244556E0,1.318989228E-2,-2.604670636E-2,-1.215735101E-3
3.876729012E0,1.239050552E-2,-2.576358989E-2,1.032542088E-3
3.879208342E0,1.292342972E-2,-2.509743534E-2,1.565467101E-3
3.881718393E0,1.318989228E-2,-2.589682117E-2,2.231623279E-3
3.884198820E0,1.358958613E-2,-2.523066662E-2,4.080206621E-3
3.886693937E0,1.535490062E-2,-2.349865995E-2,4.196783993E-3
3.889214405E0,1.630417258E-2,-2.216634713E-2,6.977986079E-3
3.891708992E0,1.657063514E-2,-2.203311585E-2,6.311830133E-3
3.894178923E0,1.618759520E-2,-2.043434046E-2,8.426875807E-3
3.896700204E0,1.698698290E-2,-1.963495463E-2,8.293644525E-3
3.899193449E0,1.913533732E-2,-1.885222085E-2,8.693338372E-3
3.901689054E0,1.928522252E-2,-1.776971668E-2,1.054192148E-2
3.904184050E0,2.021783963E-2,-1.765313931E-2,1.094161533E-2
3.906679045E0,2.155015245E-2,-1.751990803E-2,1.067515276E-2
3.909173633E0,2.063418739E-2,-1.552143972E-2,1.092496142E-2
3.911642505E0,2.209973149E-2,-1.538820844E-2,1.092496142E-2
3.914163054E0,2.251607925E-2,-1.487193722E-2,9.742534719E-3
3.916658781E0,2.318223566E-2,-1.487193722E-2,9.342840873E-3
3.919152759E0,2.238284796E-2,-1.393931825E-2,7.744065952E-3
3.921648487E0,2.171669155E-2,-1.365620177E-2,9.342840873E-3
3.924124276E0,2.184992284E-2,-1.432235818E-2,9.342840873E-3
3.926637663E0,1.931853034E-2,-1.284016017E-2,9.476072155E-3
3.929132984E0,2.000133879E-2,-1.139127091E-2,7.610834669E-3
3.931628263E0,2.080072649E-2,-1.019218937E-2,6.811446976E-3
3.934122689E0,1.946841553E-2,-1.017553546E-2,7.077909540E-3
3.936578256E0,1.961830072E-2,-9.242917411E-3,9.059724398E-3
3.939112273E0,1.961830072E-2,-9.242917411E-3,7.727412041E-3
3.941607145E0,1.908537559E-2,-8.576761000E-3,7.860642858E-3
3.944090788E0,1.733671501E-2,-9.376148693E-3,6.411753129E-3
3.946597014E0,1.963495463E-2,-7.644142490E-3,6.661561783E-3
3.949092171E0,1.963495463E-2,-6.977986079E-3,6.528330501E-3
3.951564055E0,1.911868341E-2,-4.846286494E-3,5.079440773E-3
3.954081755E0,1.886887476E-2,-2.847817726E-3,5.062786862E-3
3.956577401E0,2.046764828E-2,-2.864471637E-3,4.396630917E-3
3.959072030E0,2.075076476E-2,-1.398927998E-3,5.062786862E-3
3.961548064E0,2.063418739E-2,2.165007609E-4,5.445826799E-3
3.964061531E0,1.996803097E-2,1.682044356E-3,3.996937070E-3
3.966556568E0,1.732006110E-2,4.379977006E-3,5.179364234E-3
3.969051644E0,1.627086475E-2,7.177833002E-3,4.629785661E-3
3.971547087E0,1.482197549E-2,8.926493116E-3,5.429172888E-3
3.974041878E0,1.110815443E-2,1.109150052E-2,6.611600053E-3
3.976511483E0,1.085834578E-2,1.443893556E-2,7.127871271E-3
3.978985686E0,7.544219028E-3,1.713686809E-2,8.043835871E-3
3.981504891E0,3.847052110E-3,2.170003764E-2,8.426875807E-3
3.983997852E0,1.598774921E-3,2.359858342E-2,9.625957347E-3
3.986515675E0,4.163476115E-4,2.574693598E-2,1.000899635E-2
3.989010750E0,4.163476115E-4,2.761217393E-2,9.875766002E-3
3.991505664E0,-3.663859097E-4,2.909437194E-2,1.252373680E-2
3.993975269E0,4.996171629E-5,3.002699092E-2,1.119142398E-2
3.996478361E0,1.898545190E-3,2.774540521E-2,1.119142398E-2
3.998990934E0,2.964395098E-3,2.746228874E-2,1.132465526E-2
4.001486378E0,5.479134619E-3,2.558039874E-2,1.094161533E-2
4.003979867E0,1.120807789E-2,2.339873649E-2,1.080838405E-2
4.006476083E0,1.478866767E-2,1.961830072E-2,1.069180667E-2
4.008970223E0,1.861906610E-2,1.558805536E-2,9.642611258E-3
4.011439910E0,2.179996110E-2,1.195750386E-2,8.593414910E-3
4.013960905E0,2.642974630E-2,7.377679925E-3,7.943912409E-3
4.016455697E0,3.026014566E-2,1.332312357E-3,5.845520645E-3
4.018924407E0,3.410719708E-2,-2.031776356E-3,6.511676591E-3
4.021420418E0,3.778770939E-2,-7.927258499E-3,5.196018144E-3
4.023939746E0,4.015256464E-2,-1.262366027E-2,5.612365901E-3
4.026435596E0,4.213437811E-2,-1.570463181E-2,4.163476173E-3
4.028929046E0,4.236753285E-2,-1.945176162E-2,2.714586444E-3
4.031425423E0,4.273391888E-2,-2.399827726E-2,2.331546741E-3
4.033920338E0,4.325019196E-2,-2.559705079E-2,1.149119460E-3
4.036389535E0,4.268395901E-2,-2.839490771E-2,1.948506921E-3
4.038884326E0,4.121841490E-2,-2.931087278E-2,2.348200651E-3
4.041379322E0,3.973621875E-2,-2.944410406E-2,4.996171338E-4
4.043874317E0,3.853713721E-2,-3.011026047E-2,7.660796400E-4
4.046369230E0,3.640543669E-2,-2.874463983E-2,1.565467101E-3
4.048864104E0,3.455685079E-2,-2.699597925E-2,1.548813190E-3
4.051359262E0,3.377411887E-2,-2.446458675E-2,1.815275638E-3
4.053853687E0,3.245846182E-2,-2.136695944E-2,2.731240354E-3
4.056354379E0,2.927756496E-2,-1.868568175E-2,2.714586444E-3
4.058843393E0,2.902775630E-2,-1.653732732E-2,3.114280291E-3
4.061363819E0,2.866137028E-2,-1.294008363E-2,4.030244891E-3
4.063859465E0,2.762882784E-2,-9.459418245E-3,4.413284827E-3
4.066354053E0,2.659628540E-2,-5.712289363E-3,4.929556046E-3
4.068848723E0,2.794525214E-2,-2.781202085E-3,5.845520645E-3
4.071343718E0,2.916098759E-2,-1.182427281E-3,5.978751928E-3
4.073838754E0,2.931087278E-2,4.163476115E-4,6.628253963E-3
4.076350107E0,2.972722054E-2,1.748659997E-3,5.712289363E-3
4.078823535E0,3.197549656E-2,-1.498851489E-4,5.312595516E-3
4.081323373E0,3.399062157E-2,2.498085669E-4,6.628253963E-3
4.083818857E0,3.465677425E-2,-5.662327749E-4,5.978751928E-3
4.086312956E0,3.677182272E-2,-2.048430266E-3,5.445826799E-3
4.088808318E0,3.820405900E-2,-6.062021479E-3,5.995405838E-3
4.091302784E0,3.898679093E-2,-9.009762667E-3,5.862174556E-3
4.093776824E0,4.096860439E-2,-1.102488488E-2,5.479134619E-3
4.096267627E0,4.081872106E-2,-1.304000709E-2,3.364088712E-3
4.098787810E0,4.131833836E-2,-1.783633232E-2,3.380742623E-3
4.101283090E0,4.236753285E-2,-1.985145546E-2,2.464778023E-3
4.103778410E0,4.260068759E-2,-2.306565829E-2,1.798621728E-3
4.106273324E0,4.218434170E-2,-2.599674463E-2,1.149119460E-3
4.108768198E0,4.095195234E-2,-2.759552002E-2,-8.326952229E-4
4.111237069E0,4.015256464E-2,-2.866137028E-2,-1.482197549E-3
4.113757292E0,3.893683106E-2,-3.037672304E-2,-1.748659997E-3
4.116252573E0,3.758786246E-2,-3.050995432E-2,-3.064318560E-3
4.118722095E0,3.747128695E-2,-2.851148508E-2,-1.348966267E-3
4.121217009E0,3.465677425E-2,-2.876129374E-2,-3.996937070E-3
4.123713144E0,3.214203566E-2,-2.739567310E-2,-3.747128649E-3
4.126206471E0,2.866137028E-2,-2.764548175E-2,-3.880359931E-3
4.128727914E0,2.734571137E-2,-2.536389790E-2,-5.079440773E-3
4.131222502E0,2.441462502E-2,-2.321554348E-2,-5.745597184E-3
4.133717050E0,2.203311585E-2,-2.211638540E-2,-4.812978674E-3
4.136212574E0,2.085068822E-2,-1.903541386E-2,-4.296707455E-3
4.138707244E0,1.700363681E-2,-1.700363681E-2,-4.296707455E-3
4.141175872E0,1.500516851E-2,-1.445558947E-2,-4.713055212E-3
4.143688688E0,1.210738905E-2,-1.137461700E-2,-4.446592648E-3
4.146191456E0,7.410987746E-3,-1.239050552E-2,-4.579823930E-3
4.148686939E0,6.245214492E-3,-8.909839205E-3,-2.331546741E-3
4.151167123E0,4.113514442E-3,-7.294410374E-3,-2.864471637E-3
4.153676278E0,2.914433368E-3,-6.744831335E-3,-3.130934201E-3
4.156171884E0,2.664624772E-4,-4.846286494E-3,-9.992343257E-5
4.158666432E0,-5.162710440E-4,-2.981049009E-3,-2.348200651E-3
4.161117522E0,-2.914433368E-3,-2.148353728E-3,-2.331546712E-4
4.163647795E0,-4.246745724E-3,-2.148353728E-3,-7.660796400E-4
4.166151499E0,-4.646439571E-3,-2.664624713E-3,8.326952229E-4
4.168646656E0,-3.597243456E-3,-4.413284827E-3,2.997702977E-4
4.171120330E0,-3.447358264E-3,-3.214203520E-3,2.015122445E-3
4.173610849E0,-2.398162382E-3,-4.946209956E-3,3.214203520E-3
4.176120777E0,-1.615428715E-3,-6.161944941E-3,2.031776356E-3
4.178600229E0,-1.348966267E-3,-7.760719862E-3,2.298238920E-3
4.181121306E0,7.827335503E-4,-8.576761000E-3,2.165007638E-3
4.183616057E0,3.697166918E-3,-1.034207456E-2,1.781967818E-3
4.186085051E0,5.695635453E-3,-1.155781001E-2,1.781967818E-3
4.188606251E0,8.077143691E-3,-1.332312357E-2,1.998468651E-4
4.191061451E0,9.559341706E-3,-1.305666100E-2,1.249042805E-3
4.193595183E0,1.275689155E-2,-1.322320011E-2,5.995405954E-4
4.196090463E0,1.368950959E-2,-1.322320011E-2,7.327718195E-4
4.198585947E0,1.463878248E-2,-1.217400469E-2,6.661561929E-5
4.201080738E0,1.758652367E-2,-1.179096475E-2,5.828866852E-4
4.203575448E0,1.931853034E-2,-1.154115610E-2,3.164241789E-4
4.206069956E0,2.066749521E-2,-1.049195975E-2,-9.992342675E-4
4.208565357E0,2.256604098E-2,-6.894716527E-3,-1.015888178E-3
4.211034555E0,2.096726559E-2,-5.545750260E-3,-6.328483578E-4
4.213553720E0,2.273258008E-2,-3.031010740E-3,-9.992343257E-5
4.216049692E0,2.259934880E-2,-2.881125547E-3,1.482197549E-3
4.218519988E0,2.181661502E-2,-6.161945057E-4,-1.165773356E-4
4.221014007E0,1.890218258E-2,1.815275638E-3,1.465543639E-3
4.223534515E0,1.798621751E-2,3.946975339E-3,1.598774921E-3
4.226029672E0,1.665390469E-2,3.847052110E-3,4.113514442E-3
4.228525115E0,1.397262607E-2,3.730474738E-3,3.713820828E-3
4.231019012E0,1.250708289E-2,4.812978674E-3,4.379977006E-3
4.233501148E0,9.725880809E-3,5.645673722E-3,6.894716527E-3
4.236009042E0,5.978751928E-3,6.461714860E-3,5.162710324E-3
4.238504038E0,3.047664650E-3,5.562404171E-3,7.161179092E-3
4.240998096E0,1.831929549E-3,4.113514442E-3,7.560872938E-3
4.243497730E0,-8.493491332E-4,4.246745724E-3,4.379977006E-3
4.245988779E0,-2.731240354E-3,2.131699817E-3,5.179364234E-3
4.248462778E0,-5.695635453E-3,4.330015217E-4,6.644907873E-3
4.250978647E0,-6.361791864E-3,1.665390446E-4,5.062786862E-3
4.253473439E0,-6.245214492E-3,-1.299004536E-3,5.995405838E-3
4.255969411E0,-6.928024348E-3,-4.246745724E-3,6.811446976E-3
4.258463144E0,-5.745597184E-3,-6.644907873E-3,8.393567987E-3
4.260959278E0,-4.546516109E-3,-6.245214492E-3,9.326186962E-3
4.263454111E0,-2.814509906E-3,-8.543453179E-3,8.676684462E-3
4.265948576E0,-5.495788646E-4,-8.560107090E-3,7.877296768E-3
4.268417612E0,3.447358264E-3,-9.792496450E-3,7.744065952E-3
4.270928029E0,4.246745724E-3,-1.005895808E-2,8.410221897E-3
4.273433725E0,7.311064284E-3,-1.020884328E-2,9.342840873E-3
4.275926319E0,1.117477007E-2,-1.159111783E-2,7.610834669E-3
4.278423024E0,1.543817017E-2,-1.280685235E-2,9.609303437E-3
4.280918548E0,1.705359854E-2,-1.295673754E-2,8.543453179E-3
4.283413339E0,1.918529905E-2,-1.350631658E-2,9.609303437E-3
4.285931080E0,2.196650021E-2,-1.473870594E-2,7.361026015E-3
4.288426279E0,2.518070489E-2,-1.463878248E-2,7.893950678E-3
4.290901905E0,2.491424233E-2,-1.477201376E-2,7.227794733E-3
4.293393238E0,2.744563483E-2,-1.478866767E-2,6.961332168E-3
4.295887623E0,2.944410406E-2,-1.667055860E-2,6.311830133E-3
4.298382821E0,2.769544348E-2,-1.707025245E-2,5.379211158E-3
4.300877613E0,2.769544348E-2,-1.773640886E-2,5.778905004E-3
4.303355560E0,2.836159989E-2,-1.773640886E-2,5.245979875E-3
4.305867644E0,2.742898092E-2,-1.746994630E-2,4.196783993E-3
4.308362761E0,2.596343681E-2,-1.665390469E-2,4.180130083E-3
4.310853199E0,2.341539040E-2,-1.637078822E-2,2.864471637E-3
4.313323903E0,2.194984630E-2,-1.663725078E-2,1.015888178E-3
4.315845549E0,2.048430219E-2,-1.637078822E-2,-4.496554320E-4
4.318316904E0,1.861906610E-2,-1.502182242E-2,-5.828866852E-4
4.320811777E0,1.677048206E-2,-1.260700636E-2,-8.493491332E-4
4.323306365E0,1.503847633E-2,-1.099157706E-2,-3.114280291E-3
4.325826588E0,1.277354546E-2,-1.070846058E-2,-3.647205187E-3
4.328322234E0,1.090830751E-2,-9.759188630E-3,-4.713055212E-3
4.330816334E0,8.926493116E-3,-7.744065952E-3,-4.046898801E-3
4.333311940E0,7.194486912E-3,-6.928024348E-3,-4.180130083E-3
4.335762054E0,5.079440773E-3,-5.179364234E-3,-3.663859097E-3
4.338301197E0,5.495788530E-3,-3.447358264E-3,-3.663859097E-3
4.340796721E0,3.230857430E-3,-1.698698266E-3,-4.080206621E-3
4.343291188E0,4.996171221E-3,9.659265052E-4,-4.080206621E-3
4.345783701E0,4.330015276E-3,2.031776356E-3,-4.213437904E-3
4.348280893E0,5.412518978E-3,2.831163816E-3,-5.146056414E-3
4.350776173E0,5.945444107E-3,4.030244891E-3,-4.763016943E-3
4.353271128E0,6.495022681E-3,4.679747391E-3,-5.279287696E-3
4.355766366E0,8.243682794E-3,7.594180759E-3,-6.628253963E-3
4.358261280E0,9.992342442E-3,7.460949477E-3,-5.962098017E-3
4.360729990E0,1.105819270E-2,8.510145359E-3,-8.343606256E-3
4.363250497E0,1.267362200E-2,9.692572989E-3,-8.876531385E-3
4.365745818E0,1.240715943E-2,1.022549719E-2,-9.276225232E-3
4.368215097E0,1.415581908E-2,1.034207456E-2,-8.493491448E-3
4.370735767E0,1.522166934E-2,1.140792482E-2,-9.276225232E-3
4.373197804E0,1.590447873E-2,1.219065860E-2,-1.047530584E-2
4.375700734E0,1.535490062E-2,1.127469353E-2,-9.409456514E-3
4.378194834E0,1.628751867E-2,1.059188321E-2,-9.409456514E-3
4.380715056E0,1.655398123E-2,1.125803962E-2,-8.626722731E-3
4.383210703E0,1.468874421E-2,1.140792482E-2,-1.047530584E-2
4.385705739E0,1.347300876E-2,9.559341706E-3,-7.960566320E-3
4.388200164E0,1.212404296E-2,9.026416577E-3,-9.542687796E-3
4.390694915E0,1.024215110E-2,7.311064284E-3,-8.210374974E-3
4.393165496E0,1.039203629E-2,7.444295567E-3,-7.410987746E-3
4.395695037E0,7.294410374E-3,5.462480709E-3,-8.993108757E-3
4.398180348E0,5.012825131E-3,4.546516109E-3,-7.544219028E-3
4.400674041E0,2.747894265E-3,4.563170020E-3,-7.410987746E-3
4.403170095E0,8.326952229E-5,5.129402503E-3,-7.943912409E-3
4.405665333E0,-3.147588111E-3,2.614662983E-3,-7.394333836E-3
4.408160044E0,-3.680513008E-3,2.747894265E-3,-7.261102553E-3
4.410648651E0,-4.230091814E-3,8.826569538E-4,-7.660796400E-3
4.413149952E0,-5.962098017E-3,2.498085611E-3,-7.527565118E-3
4.415644744E0,-5.445826799E-3,9.992343257E-5,-5.928790197E-3
4.418139211E0,-8.243682794E-3,9.326186846E-4,-6.195252761E-3
4.420633269E0,-9.975688532E-3,1.665390482E-5,-5.012825131E-3
4.423129811E0,-1.010891981E-2,1.482197549E-3,-4.879594315E-3
4.425624481E0,-9.709226899E-3,1.498851489E-4,-4.213437904E-3
4.428142058E0,-1.132465526E-2,-7.660796400E-4,-3.680513008E-3
4.430613575E0,-1.077507623E-2,1.665390446E-4,-3.014356829E-3
4.433109385E0,-1.197415777E-2,9.659265052E-4,-2.764548175E-3
4.435603444E0,-1.305666100E-2,-1.415581908E-3,-3.014356829E-3
4.438098968E0,-1.119142398E-2,-1.965160714E-3,-1.032542088E-3
4.440553192E0,-1.360624004E-2,-2.598009072E-3,1.665390446E-4
4.443085418E0,-1.212404296E-2,-1.299004536E-3,-1.948506921E-3
4.445584075E0,-1.385604870E-2,-1.798621728E-3,9.659265052E-4
4.448078948E0,-1.427239645E-2,-2.198315458E-3,1.615428715E-3
4.450572967E0,-1.400593389E-2,-3.397396533E-3,2.681278624E-3
4.453068491E0,-1.239050552E-2,-2.464778023E-3,3.080972470E-3
4.455563486E0,-1.347300876E-2,-4.196783993E-3,3.347434802E-3
4.458058481E0,-1.240715943E-2,-3.930321429E-3,5.595711991E-3
4.460580047E0,-1.295673754E-2,-6.461714860E-3,4.546516109E-3
4.463047820E0,-1.377277914E-2,-8.326952346E-3,4.030244891E-3
4.465543426E0,-1.352297049E-2,-9.925727732E-3,4.962863866E-3
4.468012949E0,-1.139127091E-2,-1.087499969E-2,5.362557247E-3
4.470507171E0,-1.262366027E-2,-1.340639312E-2,4.713055212E-3
4.473027801E0,-1.075842232E-2,-1.475535985E-2,4.579823930E-3
4.475523203E0,-1.212404296E-2,-1.888552867E-2,4.979517311E-3
4.478018116E0,-1.147454046E-2,-1.941845380E-2,2.997702919E-3
4.480512786E0,-1.095826924E-2,-2.130034380E-2,3.147588111E-3
4.483007212E0,-1.017553546E-2,-2.369850688E-2,3.014356829E-3
4.485476857E0,-1.217400469E-2,-2.423143201E-2,2.081738086E-3
4.487997202E0,-1.272358373E-2,-2.476435713E-2,1.698698266E-3
4.490491750E0,-1.165773347E-2,-2.544716746E-2,-1.348966267E-3
4.492990895E0,-1.259035245E-2,-2.569697425E-2,-1.082503819E-3
4.495482838E0,-1.485528331E-2,-2.368185297E-2,-1.348966267E-3
4.497951507E0,-1.325650793E-2,-2.331546694E-2,-3.347434802E-3
4.500446421E0,-1.510509197E-2,-2.181661502E-2,-2.947741188E-3
4.502941375E0,-1.375612523E-2,-1.996803097E-2,-3.347434802E-3
4.505461598E0,-1.786964014E-2,-1.766979322E-2,-3.230857430E-3
4.507957326E0,-1.718682982E-2,-1.487193722E-2,-3.097626381E-3
4.510452280E0,-1.916864514E-2,-1.299004536E-2,-3.630551277E-3
4.512947153E0,-2.008460835E-2,-1.004230417E-2,-2.981049009E-3
4.515441416E0,-2.058422565E-2,-5.629019812E-3,-2.331546741E-3
4.517941009E0,-2.095061168E-2,-2.431470202E-3,-2.747894265E-3
4.520433359E0,-2.199980803E-2,1.049195998E-3,-3.414050443E-3
4.522926401E0,-2.160011418E-2,1.182427281E-3,-3.280819161E-3
4.525421396E0,-2.143357508E-2,4.513208289E-3,-4.746363033E-3
4.527915862E0,-2.276588790E-2,5.462480709E-3,-3.430704353E-3
4.530411631E0,-2.221630886E-2,5.978751928E-3,-5.412518978E-3
4.532906830E0,-2.209973149E-2,5.445826799E-3,-6.478368770E-3
4.535377939E0,-2.314892784E-2,6.511676591E-3,-7.943912409E-3
4.537870371E0,-2.303235047E-2,5.845520645E-3,-7.277756464E-3
4.540390757E0,-2.236619405E-2,4.363323096E-3,-8.460183628E-3
4.542885955E0,-2.239950188E-2,2.231623279E-3,-1.017553546E-2
4.545380991E0,-2.173334546E-2,7.494257297E-4,-1.122473180E-2
4.547876190E0,-2.123372816E-2,-1.532159280E-3,-1.189088821E-2
4.550345265E0,-1.965160854E-2,-3.946975339E-3,-1.347300876E-2
4.552840504E0,-1.965160854E-2,-5.146056414E-3,-1.332312357E-2
4.555335134E0,-1.966826245E-2,-6.361791864E-3,-1.532159280E-2
4.557855804E0,-1.835260354E-2,-9.309533052E-3,-1.570463181E-2
4.560359629E0,-1.715352200E-2,-9.043070488E-3,-1.650401950E-2
4.562845876E0,-1.595444046E-2,-9.859112091E-3,-1.675382815E-2
4.565317474E0,-1.460547466E-2,-8.543453179E-3,-1.741998456E-2
4.567851165E0,-1.380608696E-2,-7.344372105E-3,-1.835260354E-2
4.570330454E0,-1.272358373E-2,-6.694869604E-3,-1.756986976E-2
4.572825205E0,-9.109686129E-3,-4.713055212E-3,-1.823602617E-2
4.575320525E0,-9.509379975E-3,-4.180130083E-3,-1.903541386E-2
4.577814544E0,-6.678215694E-3,-2.065084176E-3,-1.876895130E-2
4.580310109E0,-6.395099685E-3,6.661561929E-5,-1.838591136E-2
4.582805022E0,-2.897779457E-3,1.765313908E-3,-1.811944880E-2
4.585275400E0,-7.494257297E-4,4.146822263E-3,-1.813610271E-2
4.587794281E0,1.815275638E-3,7.211140823E-3,-1.746994630E-2
4.590289846E0,2.631316893E-3,7.877296768E-3,-1.668721251E-2
4.592786997E0,5.445826799E-3,1.012557372E-2,-1.590447873E-2
4.595240936E0,8.127105422E-3,1.064184494E-2,-1.470539812E-2
4.597748993E0,9.742534719E-3,1.182427257E-2,-1.272358373E-2
4.600269866E0,1.120807789E-2,1.089165360E-2,-1.259035245E-2
4.602764740E0,1.229058206E-2,1.194084994E-2,-1.299004536E-2
4.605259532E0,1.333977748E-2,9.809150361E-3,-9.942381643E-3
4.607753753E0,1.413916517E-2,8.476837538E-3,-8.476837538E-3
4.610248748E0,1.465543639E-2,6.478368770E-3,-8.077143691E-3
4.612742645E0,1.422243472E-2,3.946975339E-3,-8.060489781E-3
4.615239552E0,1.542151626E-2,2.464778023E-3,-6.994639989E-3
4.617708140E0,1.647071168E-2,-1.998468651E-4,-6.728177425E-3
4.620228648E0,1.885222085E-2,-2.214969369E-3,-4.996171221E-3
4.622697846E0,1.722013764E-2,-7.127871271E-3,-2.198315458E-3
4.625192840E0,1.813610271E-2,-8.743300103E-3,-2.598009072E-3
4.627713307E0,1.998468488E-2,-1.129134744E-2,-1.931853010E-3
4.630182953E0,1.983480155E-2,-1.395597216E-2,-5.995405954E-4
4.632703786E0,2.075076476E-2,-1.648736559E-2,1.265696716E-3
4.635198618E0,2.219965495E-2,-1.850248873E-2,1.665390446E-3
4.637693532E0,2.513074316E-2,-2.011791617E-2,2.348200651E-3
4.640188893E0,2.459781803E-2,-2.038437873E-2,2.864471637E-3
4.642664601E0,2.657963149E-2,-2.266596444E-2,5.529096350E-3
4.645153575E0,2.832829207E-2,-2.135030553E-2,4.330015276E-3
4.647672780E0,2.872798592E-2,-2.146688290E-2,5.262633786E-3
4.650167856E0,3.019353002E-2,-2.214969322E-2,7.377679925E-3
4.652662608E0,2.994372137E-2,-1.960164681E-2,8.293644525E-3
4.655158214E0,3.100957163E-2,-2.041768655E-2,8.693338372E-3
4.657652842E0,2.994372137E-2,-1.960164681E-2,8.959800936E-3
4.660122040E0,2.874463983E-2,-1.905206777E-2,9.492726065E-3
4.662617483E0,2.634647675E-2,-1.850248873E-2,9.226263501E-3
4.665136850E0,2.556374483E-2,-1.677048206E-2,9.093032219E-3
4.667632700E0,2.248277143E-2,-1.740333065E-2,9.359494783E-3
4.670127859E0,2.130034380E-2,-1.553809363E-2,8.959800936E-3
4.672596893E0,1.768644713E-2,-1.603771001E-2,8.027181961E-3
4.675091441E0,1.503847633E-2,-1.362289395E-2,7.494257297E-3
4.677586151E0,1.182427257E-2,-1.358958613E-2,7.361026015E-3
4.680107472E0,9.159647860E-3,-1.290677581E-2,6.161944941E-3
4.682602345E0,5.029479042E-3,-1.220731251E-2,5.895482376E-3
4.685096486E0,2.614662983E-3,-1.325650793E-2,7.227794733E-3
4.687592255E0,2.198315458E-3,-1.472205203E-2,8.160413243E-3
4.690070973E0,-4.663093423E-4,-1.497186068E-2,7.227794733E-3
4.692581431E0,-1.565467101E-3,-1.668721251E-2,6.844754796E-3
4.695077159E0,-1.032542088E-3,-1.870233566E-2,7.510911208E-3
4.697569427E0,-1.448889729E-3,-1.948506944E-2,8.709992282E-3
4.700066416E0,-6.661561783E-4,-2.110049687E-2,7.910604589E-3
4.702561737E0,-2.931087278E-3,-2.041768655E-2,7.510911208E-3
4.705056894E0,-2.331546712E-4,-1.910202950E-2,9.109686129E-3
4.707551808E0,9.659265052E-4,-1.951837726E-2,7.777373772E-3
4.710020640E0,8.326952229E-4,-1.805283315E-2,7.111217361E-3
4.712541107E0,1.515505370E-3,-1.645405777E-2,6.178598851E-3
4.715036305E0,1.948506921E-3,-1.312327664E-2,6.161944941E-3
4.717505381E0,1.032542088E-3,-1.057522930E-2,4.962863866E-3
4.720025727E0,6.495022681E-4,-8.443529718E-3,4.163476173E-3
4.722521576E0,2.498085669E-4,-7.377679925E-3,3.763782559E-3
4.725016368E0,5.495788646E-4,-3.647205187E-3,4.679747391E-3
4.727469005E0,3.330780892E-4,8.993108640E-4,6.128637120E-3
4.730015757E0,1.165773356E-4,6.911370438E-3,6.894716527E-3
4.732500987E0,8.160413126E-4,1.037538238E-2,7.027947810E-3
4.734995819E0,5.828866852E-4,1.450555120E-2,5.545750260E-3
4.737500376E0,2.631316893E-3,2.023449354E-2,7.111217361E-3
4.739985484E0,3.880359931E-3,2.518070489E-2,8.293644525E-3
4.742454885E0,4.563170020E-3,2.796190605E-2,7.494257297E-3
4.744949311E0,6.478368770E-3,3.354096413E-2,5.878828466E-3
4.747470062E0,9.159647860E-3,3.394065797E-2,7.477603387E-3
4.749965383E0,1.022549719E-2,3.419046476E-2,6.411753129E-3
4.752459687E0,1.342304703E-2,3.415715694E-2,3.897013841E-3
4.754955576E0,1.528828498E-2,3.227526695E-2,4.030244891E-3
4.757404063E0,1.806948707E-2,3.037672304E-2,1.648736536E-3
4.759919119E0,1.898545213E-2,2.822836861E-2,1.265696716E-3
4.762439707E0,2.174999937E-2,2.313227393E-2,-9.825803572E-4
4.764935313E0,2.249942534E-2,1.816941053E-2,-2.281585010E-3
4.767430146E0,2.271592617E-2,1.269027591E-2,-3.980283160E-3
4.769924977E0,2.414816245E-2,7.477603387E-3,-3.713820828E-3
4.772420013E0,2.411485463E-2,2.931087278E-3,-5.945444107E-3
4.774914317E0,2.458116412E-2,-4.546516109E-3,-6.311830133E-3
4.777383800E0,2.253273316E-2,-9.059724398E-3,-7.227794733E-3
4.779904185E0,2.141692117E-2,-1.480532158E-2,-9.059724398E-3
4.782399587E0,1.963495463E-2,-1.958499290E-2,-8.393567987E-3
4.784884980E0,1.625421084E-2,-2.463112585E-2,-8.376914077E-3
4.787389374E0,1.448889729E-2,-2.794525214E-2,-6.778139155E-3
4.789884776E0,1.165773347E-2,-3.139261156E-2,-7.027947810E-3
4.792379649E0,1.125803962E-2,-3.125938028E-2,-6.495022681E-3
4.794850230E0,9.892419912E-3,-3.552277759E-2,-6.611600053E-3
4.797368540E0,9.076378308E-3,-3.603905067E-2,-5.945444107E-3
4.799864187E0,1.040869020E-2,-3.698832169E-2,-5.012825131E-3
4.802359385E0,1.055857539E-2,-3.605570272E-2,-5.545750260E-3
4.804853811E0,1.124138571E-2,-3.379077464E-2,-3.963629249E-3
4.807349132E0,1.247377507E-2,-3.125938028E-2,-2.914433368E-3
4.809847179E0,1.487193722E-2,-3.074310906E-2,-2.664624713E-3
4.812337860E0,1.677048206E-2,-2.887787111E-2,-1.498851489E-4
4.814833100E0,2.213303931E-2,-2.569697425E-2,7.494257297E-4
4.817302542E0,2.523066662E-2,-2.264931053E-2,1.665390446E-3
4.819823211E0,2.992706746E-2,-2.081738040E-2,1.132465550E-3
4.822292898E0,3.142591938E-2,-1.775306277E-2,2.847817726E-3
4.824787405E0,3.465677425E-2,-1.578790136E-2,3.630551277E-3
4.827307790E0,3.933652490E-2,-1.368950959E-2,3.897013841E-3
4.829803396E0,4.148487747E-2,-1.304000709E-2,3.497319994E-3
4.832298391E0,4.363323003E-2,-1.252373680E-2,3.497319994E-3
4.834792002E0,4.673085734E-2,-9.742534719E-3,1.765313908E-3
4.837262054E0,4.658097029E-2,-1.014222763E-2,3.480666084E-3
4.839782929E0,4.792993888E-2,-9.492726065E-3,1.898545190E-3
4.842277924E0,4.819640145E-2,-9.625957347E-3,2.148353728E-3
4.844747080E0,4.684743285E-2,-1.002565026E-2,6.994639989E-4
4.847267304E0,4.604804516E-2,-1.000899635E-2,1.365620177E-3
4.849762503E0,4.469908029E-2,-1.134130917E-2,-1.149119460E-3
4.852238210E0,4.003598541E-2,-1.077507623E-2,-2.165007609E-4
4.854752655E0,3.842055798E-2,-1.262366027E-2,-6.161945057E-4
4.857247081E0,3.495654464E-2,-1.100823097E-2,-1.282350626E-3
4.859733490E0,3.041003086E-2,-1.082503796E-2,-1.149119460E-3
4.862211517E0,2.787863649E-2,-1.040869020E-2,-1.548813190E-3
4.864731741E0,2.399827726E-2,-9.709226899E-3,-2.348200651E-3
4.867227020E0,2.066749521E-2,-9.026416577E-3,-2.081738086E-3
4.869721771E0,1.788629405E-2,-7.394333836E-3,-2.614662983E-3
4.872217296E0,1.468874421E-2,-6.311830133E-3,-2.747894265E-3
4.874712291E0,1.215735078E-2,-4.812978674E-3,-3.147588111E-3
4.877206472E0,9.775842540E-3,-2.681278624E-3,-5.146056414E-3
4.879676077E0,8.177067153E-3,-2.131699817E-3,-4.746363033E-3
4.882210338E0,6.445060950E-3,1.665390482E-5,-5.412518978E-3
4.884666066E0,5.129402503E-3,1.365620177E-3,-6.878062617E-3
4.887160614E0,3.797090380E-3,1.632082625E-3,-7.277756464E-3
4.889655488E0,1.648736536E-3,1.382274088E-3,-6.744831335E-3
4.892176646E0,2.464778023E-3,2.564701252E-3,-8.993108757E-3
4.894663585E0,7.327718195E-4,4.579823930E-3,-9.526033886E-3
4.897166718E0,8.826569538E-4,4.846286494E-3,-8.593414910E-3
4.899635264E0,6.161945057E-4,5.112748593E-3,-8.993108757E-3
4.902155772E0,3.031010740E-3,7.094563451E-3,-8.876531385E-3
4.904639008E0,1.015888178E-3,5.912136286E-3,-9.259571321E-3
4.907146210E0,3.563935636E-3,7.494257297E-3,-8.077143691E-3
4.909641083E0,3.830398200E-3,7.627488580E-3,-8.610068820E-3
4.912135468E0,5.295941606E-3,5.878828466E-3,-7.810681593E-3
4.914630952E0,6.261868402E-3,9.759188630E-3,-5.695635453E-3
4.917125783E0,6.928024348E-3,9.742534719E-3,-5.962098017E-3
4.919594615E0,9.209609590E-3,1.025880501E-2,-6.228560582E-3
4.922115164E0,1.097492315E-2,1.305666100E-2,-5.179364234E-3
4.924610728E0,1.244046725E-2,1.225727424E-2,-3.330780892E-3
4.927099905E0,1.472205203E-2,1.383939479E-2,-2.931087278E-3
4.929600597E0,1.458882075E-2,1.383939479E-2,-2.664624713E-3
4.932094819E0,1.538820844E-2,1.343970094E-2,-2.131699817E-3
4.934590180E0,1.445558947E-2,1.330646966E-2,-1.732006087E-3
4.937058849E0,1.498851459E-2,1.423908863E-2,-5.495788646E-4
4.939579723E0,1.407254953E-2,1.612097956E-2,4.996171338E-4
4.942074839E0,1.272358373E-2,1.358958613E-2,3.830398200E-4
4.944569835E0,1.099157706E-2,1.482197549E-2,8.993108640E-4
4.947064871E0,8.976454847E-3,1.350631658E-2,2.764548175E-3
4.949560232E0,6.028713658E-3,1.312327664E-2,1.165773356E-4
