"Time (s)","Gyroscope x (rad/s)","Gyroscope y (rad/s)","Gyroscope z (rad/s)"
3.240607200E-2,6.506680697E-2,-5.101091042E-2,-5.194352940E-2
3.489501300E-2,5.785566568E-2,-4.907905683E-2,-5.022817850E-2
3.739562300E-2,5.211006850E-2,-4.929555953E-2,-4.929555953E-2
3.988516500E-2,4.729709029E-2,-5.112748966E-2,-4.718051106E-2
4.238028300E-2,4.633116350E-2,-5.497454107E-2,-4.411619529E-2
4.487271500E-2,4.586485401E-2,-6.243548915E-2,-4.396630824E-2
4.737023200E-2,4.543185234E-2,-6.789796799E-2,-4.128503054E-2
4.986522800E-2,4.763016850E-2,-7.632484287E-2,-4.046898708E-2
5.235993800E-2,4.956202209E-2,-8.580091596E-2,-3.752124682E-2
5.485574700E-2,5.174368247E-2,-9.462748468E-2,-3.790428862E-2
5.735041600E-2,5.570731312E-2,-1.018552855E-1,-3.628885746E-2
5.982738600E-2,5.872166902E-2,-1.086833850E-1,-3.440696746E-2
6.234057000E-2,6.241883710E-2,-1.131133214E-1,-3.334111720E-2
6.482413000E-2,6.558308005E-2,-1.192752644E-1,-3.397396579E-2
6.731526000E-2,6.903043389E-2,-1.218233109E-1,-3.317457810E-2
6.981416200E-2,7.369352877E-2,-1.224061996E-1,-3.264165297E-2
7.230899400E-2,7.652468979E-2,-1.192253083E-1,-3.279154003E-2
7.480407000E-2,7.910604775E-2,-1.156447157E-1,-3.412384912E-2
7.729931000E-2,8.102124929E-2,-1.099157706E-1,-3.362423554E-2
7.979812900E-2,8.266998082E-2,-1.035373285E-1,-3.575593233E-2
8.229048000E-2,8.486829698E-2,-9.780838341E-2,-3.392400593E-2
8.478453900E-2,8.481834084E-2,-8.753292263E-2,-3.540620208E-2
8.728266700E-2,8.341941237E-2,-7.817342877E-2,-3.279154003E-2
8.979515900E-2,7.822339237E-2,-6.250210851E-2,-2.727909572E-2
9.229035800E-2,6.564969569E-2,-3.590581939E-2,-1.092496142E-2
9.478555700E-2,5.024483055E-2,-9.842458181E-3,4.213437904E-3
9.728014400E-2,3.723813221E-2,1.367285568E-2,1.938514598E-2
9.975532400E-2,2.418147027E-2,3.024349175E-2,3.390735015E-2
1.022496270E-1,1.417247299E-2,4.599808529E-2,4.776339978E-2
1.047446630E-1,3.197549842E-3,5.680647120E-2,5.938782543E-2
1.072422220E-1,-6.062021479E-3,6.613265723E-2,7.167840749E-2
1.097554460E-1,-1.537155453E-2,7.064586133E-2,8.346936852E-2
1.122656180E-1,-2.614662983E-2,7.304402441E-2,9.526033700E-2
1.147761570E-1,-3.510643169E-2,7.181163877E-2,1.030710191E-1
1.172567070E-1,-4.433269426E-2,6.818109006E-2,1.115645096E-1
1.197518240E-1,-5.412518978E-2,6.230225787E-2,1.208573878E-1
1.222291600E-1,-6.261868030E-2,5.211006850E-2,1.272524893E-1
1.247424250E-1,-6.991308928E-2,4.166806862E-2,1.345802099E-1
1.272209820E-1,-7.444295287E-2,2.677947842E-2,1.412417740E-1
1.297319670E-1,-7.975555211E-2,1.244046725E-2,1.488359421E-1
1.322278170E-1,-8.188725263E-2,-2.198315458E-3,1.536489278E-1
1.347454360E-1,-8.428541571E-2,-1.951837726E-2,1.584785581E-1
1.372174410E-1,-8.310298622E-2,-3.697166964E-2,1.642241627E-1
1.397077980E-1,-7.907274365E-2,-5.154383555E-2,1.670553237E-1
1.422072690E-1,-7.397664338E-2,-6.571631134E-2,1.704194099E-1
1.447028330E-1,-6.714854389E-2,-7.923927903E-2,1.720348299E-1
1.471996600E-1,-5.947109312E-2,-8.889854699E-2,1.744496524E-1
1.496929050E-1,-4.991175234E-2,-9.617630392E-2,1.767312437E-1
1.521681240E-1,-3.965294734E-2,-9.852450341E-2,1.765980124E-1
1.546825290E-1,-3.050995432E-2,-9.377814084E-2,1.813443750E-1
1.571781350E-1,-1.925191469E-2,-8.984781802E-2,1.834594160E-1
1.596349630E-1,-7.327718195E-3,-8.500152826E-2,1.870233566E-1
1.621680840E-1,3.980283160E-3,-7.654134929E-2,1.872565001E-1
1.646423680E-1,1.781967841E-2,-6.544984877E-2,1.881391555E-1
1.671574240E-1,2.821171470E-2,-5.299272388E-2,1.861073822E-1
1.696532320E-1,3.993606195E-2,-4.041902721E-2,1.820937991E-1
1.721229590E-1,5.112748966E-2,-2.746228874E-2,1.762316227E-1
1.746432640E-1,6.072013825E-2,-1.408920344E-2,1.670386642E-1
1.771203540E-1,7.042936236E-2,-1.398927998E-3,1.570629776E-1
1.796327250E-1,8.038839698E-2,9.559341706E-3,1.460380852E-1
1.821279230E-1,8.581756800E-2,2.146688290E-2,1.340805888E-1
1.845969580E-1,9.083040059E-2,3.110949509E-2,1.197415739E-1
1.871186460E-1,9.552679956E-2,3.675516695E-2,1.044865996E-1
1.895872740E-1,9.554345161E-2,4.176799208E-2,8.776608109E-2
1.921078230E-1,9.529364109E-2,4.598142952E-2,7.131201774E-2
1.945779550E-1,9.249578416E-2,4.886255786E-2,5.342572555E-2
1.970715270E-1,8.633384109E-2,5.071114004E-2,3.593912721E-2
1.995935000E-1,7.880628109E-2,4.816309363E-2,1.727009937E-2
2.020868260E-1,6.929689646E-2,4.736370593E-2,-1.132465550E-3
2.045567160E-1,5.923793837E-2,4.483231157E-2,-1.913533732E-2
2.070788110E-1,4.729709029E-2,4.260068759E-2,-3.635547310E-2
2.095475190E-1,3.469008207E-2,3.823736683E-2,-5.262633786E-2
2.120681900E-1,1.858575828E-2,3.324119374E-2,-6.453388184E-2
2.145374290E-1,5.429172888E-3,2.729574963E-2,-7.775708288E-2
2.170583430E-1,-1.025880501E-2,2.083403431E-2,-8.951473981E-2
2.195539890E-1,-2.596343681E-2,1.370616350E-2,-9.795826674E-2
2.220646500E-1,-3.980283067E-2,6.328484043E-3,-1.054858342E-1
2.245435730E-1,-5.590716004E-2,-7.827335503E-4,-1.111648157E-1
2.270381200E-1,-6.986313313E-2,-9.209609590E-3,-1.128468588E-1
2.295335220E-1,-8.233690262E-2,-1.445558947E-2,-1.125637442E-1
2.320288430E-1,-9.522702545E-2,-2.328215912E-2,-1.122806296E-1
2.345031260E-1,-1.051694080E-1,-2.894448675E-2,-1.095993444E-1
2.370194030E-1,-1.124138609E-1,-3.299138695E-2,-1.046864465E-1
2.394896590E-1,-1.168437973E-1,-3.668855131E-2,-1.017553583E-1
2.419833510E-1,-1.207408085E-1,-4.036906362E-2,-9.724214673E-2
2.445041440E-1,-1.216734275E-1,-4.021918029E-2,-9.181297570E-2
2.469575950E-1,-1.188589185E-1,-4.086868092E-2,-8.585087955E-2
2.494938080E-1,-1.141625196E-1,-3.902009875E-2,-8.055493981E-2
2.519862400E-1,-1.097159237E-1,-3.477335349E-2,-7.687442750E-2
2.544839620E-1,-1.028378606E-1,-2.774540521E-2,-7.239452749E-2
2.569837590E-1,-9.541022032E-2,-1.951837726E-2,-6.869735569E-2
2.594485200E-1,-8.585087955E-2,-1.169104129E-2,-6.450057030E-2
2.619695570E-1,-7.439298928E-2,-2.997702977E-4,-6.042036787E-2
2.644639020E-1,-5.947109312E-2,1.040869020E-2,-5.742266402E-2
2.669590590E-1,-4.708058760E-2,2.246611752E-2,-5.427507684E-2
2.694542580E-1,-2.949406579E-2,3.340773284E-2,-5.152717978E-2
2.719235780E-1,-1.417247299E-2,4.503215849E-2,-4.784666747E-2
2.744450210E-1,2.864471637E-3,5.184360594E-2,-4.603139311E-2
2.769335870E-1,1.871898957E-2,6.173602492E-2,-4.248411208E-2
2.794341980E-1,3.332446516E-2,6.778139621E-2,-3.827067465E-2
2.819300880E-1,4.716385901E-2,7.489261031E-2,-3.392400593E-2
2.844063250E-1,5.973755568E-2,7.787366211E-2,-3.062653169E-2
2.869198750E-1,7.007963210E-2,8.315294981E-2,-2.599674463E-2
2.894138530E-1,7.958900928E-2,8.535125852E-2,-2.176665328E-2
2.919094170E-1,8.493491262E-2,8.413552493E-2,-1.740333065E-2
2.944048200E-1,8.974789083E-2,8.385241032E-2,-1.275689155E-2
2.969022160E-1,9.281221032E-2,8.197052032E-2,-6.395099685E-3
2.993951760E-1,9.026416391E-2,7.975555211E-2,-5.662327749E-4
3.018640890E-1,8.704996109E-2,7.819008082E-2,3.414050443E-3
3.043846380E-1,8.047166467E-2,7.439298928E-2,9.259571321E-3
3.068803640E-1,7.415983826E-2,6.899712980E-2,1.285681408E-2
3.093724300E-1,6.360126287E-2,6.749827415E-2,1.841921918E-2
3.118700300E-1,4.994506016E-2,6.295175850E-2,2.294908091E-2
3.143389820E-1,3.480666131E-2,5.775574222E-2,2.866137028E-2
3.168598160E-1,2.086734213E-2,5.227660760E-2,3.252507746E-2
3.193552590E-1,2.797855996E-3,4.751358926E-2,3.743797913E-2
3.218253520E-1,-1.405589562E-2,4.551512003E-2,3.797090426E-2
3.243448420E-1,-3.195884451E-2,4.433269426E-2,4.183460772E-2
3.268326760E-1,-4.854613170E-2,4.006929323E-2,4.528196901E-2
3.293349140E-1,-6.445061415E-2,3.980283067E-2,4.648104683E-2
3.318307230E-1,-8.035509288E-2,3.887021542E-2,4.768012837E-2
3.343195330E-1,-9.477737546E-2,3.845386580E-2,4.901244119E-2
3.368197780E-1,-1.098824665E-1,3.765447810E-2,5.179364234E-2
3.393149350E-1,-1.198914573E-1,3.933652490E-2,5.390869081E-2
3.418101740E-1,-1.293508857E-1,4.168472439E-2,5.497454107E-2
3.443058610E-1,-1.362788975E-1,4.454919696E-2,5.455819145E-2
3.467748960E-1,-1.419745386E-1,4.886255786E-2,5.509111658E-2
3.492962580E-1,-1.443560421E-1,5.167706683E-2,5.494123325E-2
3.517902360E-1,-1.436565816E-1,5.727277696E-2,5.360892043E-2
3.542853940E-1,-1.441395432E-1,6.261868030E-2,5.345903337E-2
3.567810400E-1,-1.423575729E-1,6.884723902E-2,4.852947965E-2
3.592754660E-1,-1.392099857E-1,7.722415775E-2,4.731374234E-2
3.617712750E-1,-1.367452145E-1,8.506814390E-2,4.491558298E-2
3.642629330E-1,-1.314659268E-1,9.369486570E-2,4.170137644E-2
3.667605730E-1,-1.275189519E-1,1.039203629E-1,3.755455464E-2
3.692556090E-1,-1.231556237E-1,1.134797111E-1,3.580589592E-2
3.717117040E-1,-1.154781729E-1,1.223395839E-1,3.100957163E-2
3.742461690E-1,-1.099324226E-1,1.313659996E-1,2.952737361E-2
3.767156920E-1,-1.037038639E-1,1.413083822E-1,2.419812419E-2
3.792356300E-1,-9.589318186E-2,1.489858329E-1,2.271592617E-2
3.817314800E-1,-8.714988083E-2,1.558305919E-1,1.871898957E-2
3.842003520E-1,-7.907274365E-2,1.640409678E-1,1.683709770E-2
3.867215510E-1,-7.182829082E-2,1.675715894E-1,1.522166934E-2
3.891782160E-1,-6.260202825E-2,1.702861786E-1,1.164107956E-2
3.917110130E-1,-5.377545953E-2,1.714186370E-1,1.084169187E-2
3.942065780E-1,-4.536523670E-2,1.709523350E-1,1.017553546E-2
3.967252130E-1,-3.830398247E-2,1.675382853E-1,8.460183628E-3
3.991968530E-1,-3.060987778E-2,1.621424109E-1,8.210374974E-3
4.016458680E-1,-2.186657675E-2,1.537988037E-1,6.778139155E-3
4.041863130E-1,-1.470539812E-2,1.458715498E-1,6.944678258E-3
4.066817160E-1,-9.326186962E-3,1.350132078E-1,6.311830133E-3
4.091516870E-1,-2.614662983E-3,1.238883957E-1,6.878062617E-3
4.116723160E-1,1.548813190E-3,1.090497673E-1,7.444295567E-3
4.141920510E-1,7.560872938E-3,9.352833033E-2,8.693338372E-3
4.166613710E-1,1.209073514E-2,7.747396827E-2,7.277756464E-3
4.191570160E-1,1.783633232E-2,6.180264056E-2,5.212672055E-3
4.216331320E-1,2.196650021E-2,4.481565952E-2,5.928790197E-3
4.241467630E-1,2.493089624E-2,3.050995432E-2,4.779670853E-3
4.266400900E-1,3.001033701E-2,1.620424911E-2,4.429938737E-3
4.291113220E-1,3.167572618E-2,6.311830133E-3,5.778905004E-3
4.316321960E-1,3.210872784E-2,-3.963629249E-3,4.479900468E-3
4.341066020E-1,3.247511387E-2,-8.643376641E-3,3.297473071E-3
4.366222670E-1,2.922760323E-2,-1.275689155E-2,3.314126981E-3
4.390941910E-1,2.654632367E-2,-1.407254953E-2,3.847052110E-3
4.416118110E-1,2.241615579E-2,-1.337308530E-2,2.398162382E-3
4.441071710E-1,1.643740386E-2,-9.459418245E-3,5.329249543E-4
4.466128680E-1,7.794027682E-3,-4.196783993E-3,-2.831163874E-4
4.490810490E-1,-1.365620177E-3,2.947741188E-3,-4.330015217E-4
4.515692890E-1,-1.157446392E-2,1.224062033E-2,-2.181661548E-3
4.540634300E-1,-2.151684463E-2,2.098391950E-2,-2.731240354E-3
4.565825540E-1,-3.588916361E-2,2.922760323E-2,-5.545750260E-3
4.590779570E-1,-4.716385901E-2,3.772109374E-2,-6.761485245E-3
4.615722190E-1,-6.138629466E-2,4.729709029E-2,-9.575995617E-3
4.640668880E-1,-7.560873032E-2,5.580723658E-2,-1.184092648E-2
4.665621280E-1,-9.159647673E-2,6.220233440E-2,-1.530493889E-2
4.690579770E-1,-1.075842232E-1,6.819774210E-2,-1.612097956E-2
4.715347840E-1,-1.217067391E-1,7.269429415E-2,-2.023449354E-2
4.740479680E-1,-1.374280155E-1,7.747396827E-2,-2.116711251E-2
4.765475200E-1,-1.497185975E-1,7.850650698E-2,-2.408154681E-2
4.790373470E-1,-1.612097919E-1,7.963897288E-2,-2.752890438E-2
4.815331160E-1,-1.701529473E-1,7.917266339E-2,-2.884456329E-2
4.840015800E-1,-1.765813529E-1,7.802354544E-2,-3.189222887E-2
4.865226990E-1,-1.791627109E-1,7.429306954E-2,-3.307465464E-2
4.890280700E-1,-1.824102253E-1,6.977985799E-2,-3.570597246E-2
4.915124460E-1,-1.792459786E-1,6.413418800E-2,-3.820405900E-2
4.940077250E-1,-1.755654663E-1,5.755589530E-2,-3.925325349E-2
4.965132180E-1,-1.666722745E-1,5.081106350E-2,-4.028579593E-2
4.989979600E-1,-1.560304314E-1,4.511542991E-2,-4.278388247E-2
5.014672790E-1,-1.432735473E-1,3.713820875E-2,-4.343338311E-2
5.039876650E-1,-1.281184852E-1,2.954402752E-2,-4.379976913E-2
5.064833930E-1,-1.109483168E-1,2.166672982E-2,-4.378311709E-2
5.089778170E-1,-9.271229059E-2,1.405589562E-2,-4.536523670E-2
5.114735050E-1,-7.312729955E-2,7.494257297E-3,-4.614796862E-2
5.139622340E-1,-5.300937966E-2,2.498085669E-4,-4.559839144E-2
5.164628430E-1,-3.115945682E-2,-6.328484043E-3,-4.504881427E-2
5.189585710E-1,-1.050861366E-2,-1.195750386E-2,-4.529862106E-2
5.214294370E-1,7.610834669E-3,-1.890218258E-2,-4.434935004E-2
5.239483590E-1,2.428139374E-2,-2.343204431E-2,-4.103522003E-2
5.264192650E-1,4.026914015E-2,-2.727909572E-2,-3.983613849E-2
5.289381040E-1,5.347568914E-2,-3.137595579E-2,-3.623889759E-2
5.314333850E-1,6.158614159E-2,-3.503981605E-2,-3.359092772E-2
5.339027850E-1,6.719850749E-2,-3.547281772E-2,-3.132599592E-2
5.364237410E-1,7.226129621E-2,-3.803751990E-2,-2.721248008E-2
5.388929390E-1,7.374349236E-2,-3.803751990E-2,-2.364854515E-2
5.413878110E-1,6.974655390E-2,-3.705493733E-2,-1.993472315E-2
5.438830910E-1,6.495022774E-2,-3.618893400E-2,-1.570463181E-2
5.464045350E-1,5.680647120E-2,-3.518969938E-2,-1.358958613E-2
5.488985120E-1,4.814643785E-2,-3.349100426E-2,-9.342840873E-3
5.513681990E-1,3.867036849E-2,-3.247511387E-2,-6.045367569E-3
5.538880960E-1,3.135930374E-2,-2.947741188E-2,-4.196783993E-3
5.563843130E-1,2.374846861E-2,-2.821171470E-2,-3.397396533E-3
5.588383730E-1,1.657063514E-2,-2.401493117E-2,-1.165773370E-3
5.613474470E-1,9.242917411E-3,-2.208307758E-2,-2.081738086E-3
5.638686470E-1,4.313361365E-3,-1.963495463E-2,-1.165773370E-3
5.663643740E-1,2.314892830E-3,-1.961830072E-2,-1.698698266E-3
5.688592880E-1,1.698698266E-3,-1.388935652E-2,-3.180895932E-3
5.713421570E-1,3.180895932E-3,-1.175765693E-2,-2.647970803E-3
5.738233990E-1,7.477603387E-3,-9.142993949E-3,-6.761485245E-3
5.763191670E-1,1.164107956E-2,-5.179364234E-3,-7.710758131E-3
5.788388610E-1,1.781967841E-2,-5.662327749E-4,-1.155781001E-2
5.813341810E-1,2.548047528E-2,4.946209956E-3,-1.622090302E-2
5.838391870E-1,3.300803900E-2,1.034207456E-2,-2.113380469E-2
5.863246200E-1,3.960298747E-2,1.653732732E-2,-2.593012899E-2
5.888191270E-1,4.859609529E-2,2.284915745E-2,-3.150918707E-2
5.913138370E-1,5.652335286E-2,2.944410406E-2,-3.588916361E-2
5.937883650E-1,6.325153261E-2,3.710490093E-2,-4.295042157E-2
5.963041530E-1,6.904708594E-2,4.236753285E-2,-4.906240478E-2
5.987995140E-1,7.562538236E-2,4.816309363E-2,-5.464146286E-2
6.012690780E-1,7.900612801E-2,5.370884389E-2,-6.153617799E-2
6.037644390E-1,8.157082647E-2,5.753923953E-2,-6.684877723E-2
6.062701760E-1,8.533460647E-2,6.123640761E-2,-7.057924569E-2
6.087538190E-1,8.575095236E-2,6.333480030E-2,-7.680781186E-2
6.112747340E-1,8.615064621E-2,6.373449415E-2,-7.814012468E-2
6.137288350E-1,8.548448980E-2,6.491692364E-2,-8.263667673E-2
6.162645610E-1,8.358594775E-2,6.226895005E-2,-8.250344545E-2
6.187439720E-1,8.330283314E-2,5.960432440E-2,-8.262002468E-2
6.212546320E-1,8.300305903E-2,5.547415838E-2,-8.208709955E-2
6.237504820E-1,8.042170852E-2,5.001167580E-2,-8.258671314E-2
6.262219990E-1,7.770711929E-2,4.563169926E-2,-8.112116903E-2
6.287399440E-1,7.484264672E-2,3.792094067E-2,-8.122109622E-2
6.312207780E-1,7.077909261E-2,3.142591938E-2,-7.988878340E-2
6.337299340E-1,6.736504287E-2,2.331546694E-2,-7.760719955E-2
6.362253770E-1,6.090332940E-2,1.590447873E-2,-7.585853338E-2
6.386966080E-1,5.590716004E-2,8.743300103E-3,-7.266099006E-2
6.412147560E-1,5.142725632E-2,5.162710440E-4,-7.209475338E-2
6.436863140E-1,4.446592554E-2,-1.682044356E-3,-6.838092953E-2
6.462050310E-1,3.865371272E-2,-9.909073822E-3,-6.716519594E-2
6.487008400E-1,3.419046476E-2,-1.600440219E-2,-6.554976851E-2
6.511953880E-1,2.881125547E-2,-2.101722732E-2,-6.235222146E-2
6.536911150E-1,2.249942534E-2,-2.538055182E-2,-6.300172210E-2
6.561628760E-1,1.741998456E-2,-2.637978457E-2,-5.955436453E-2
6.586803330E-1,1.165773347E-2,-2.726244181E-2,-5.822205171E-2
6.611759790E-1,6.861408707E-3,-2.736236528E-2,-5.637346953E-2
6.636303240E-1,1.532159280E-3,-2.558039874E-2,-5.770577863E-2
6.661653180E-1,-3.364088712E-3,-2.006795444E-2,-5.572396517E-2
6.686288600E-1,-8.526799269E-3,-1.482197549E-2,-5.627354607E-2
6.711300800E-1,-1.513839979E-2,-7.444295567E-3,-5.695635453E-2
6.736514830E-1,-1.933518425E-2,2.065084176E-3,-5.763916299E-2
6.761453390E-1,-2.379843034E-2,1.170769520E-2,-5.807216465E-2
6.786411480E-1,-2.759552002E-2,1.986810938E-2,-5.955436453E-2
6.810975690E-1,-2.764548175E-2,3.200880438E-2,-6.196917966E-2
6.836305280E-1,-2.676282451E-2,4.093529657E-2,-6.133633107E-2
6.861260520E-1,-2.106718905E-2,5.169371888E-2,-6.323487312E-2
6.885952090E-1,-1.378943305E-2,5.963763222E-2,-6.471707672E-2
6.911159200E-1,-4.496554378E-3,6.823104620E-2,-6.633250415E-2
6.936334990E-1,8.510145359E-3,7.267764211E-2,-6.463380158E-2
6.961057070E-1,2.110049687E-2,7.804019749E-2,-6.596611440E-2
6.986013940E-1,3.449023515E-2,8.113782108E-2,-6.571631134E-2
7.010706330E-1,4.614796862E-2,8.438533545E-2,-6.440065056E-2
7.035655050E-1,6.018721312E-2,8.573430032E-2,-6.375114620E-2
7.060689230E-1,7.021286339E-2,8.713322878E-2,-6.203579530E-2
7.085559430E-1,7.902278006E-2,8.520137519E-2,-6.176933274E-2
7.110763280E-1,8.570099622E-2,8.383575827E-2,-5.712289363E-2
7.135453640E-1,8.928158134E-2,8.033843338E-2,-5.434169248E-2
7.160657500E-1,9.111351520E-2,7.569199800E-2,-4.756355286E-2
7.185393000E-1,8.881527185E-2,7.092898339E-2,-4.198449478E-2
7.210305520E-1,8.503483981E-2,6.496687979E-2,-3.508977592E-2
7.235522400E-1,7.710757852E-2,5.920463055E-2,-2.617993765E-2
7.260438180E-1,6.543318927E-2,5.211006850E-2,-1.900210604E-2
7.285412540E-1,5.217668414E-2,4.626454785E-2,-9.326186962E-3
7.310110210E-1,3.622224182E-2,3.802086413E-2,-1.498851489E-4
7.335315290E-1,2.016787790E-2,3.444027528E-2,7.943912409E-3
7.360272160E-1,7.660796400E-4,2.916098759E-2,1.643740386E-2
7.384984480E-1,-1.848583482E-2,2.626320720E-2,2.374846861E-2
7.410162710E-1,-3.680513054E-2,2.363189124E-2,2.997702919E-2
7.434688250E-1,-5.683977902E-2,2.381508425E-2,3.620558977E-2
7.460065450E-1,-7.417649031E-2,2.716251835E-2,3.858709708E-2
7.485019070E-1,-8.978120238E-2,3.011026047E-2,4.016921669E-2
7.509966170E-1,-1.037538275E-1,3.475669771E-2,4.148487747E-2
7.534923850E-1,-1.171935275E-1,4.153483734E-2,4.133499041E-2
7.559635360E-1,-1.259701401E-1,4.706393555E-2,3.840390593E-2
7.584817250E-1,-1.348300129E-1,5.780570209E-2,3.518969938E-2
7.609767190E-1,-1.362289488E-1,6.661561877E-2,3.304134682E-2
7.634718370E-1,-1.373780668E-1,7.420980185E-2,2.757886611E-2
7.659671580E-1,-1.366452873E-1,8.218701929E-2,2.358192950E-2
7.684411560E-1,-1.319155842E-1,9.054727852E-2,1.905206777E-2
7.709561710E-1,-1.247710586E-1,9.794161469E-2,1.665390469E-2
7.734521430E-1,-1.168437973E-1,1.032042503E-1,1.410585735E-2
7.759396910E-1,-1.078506857E-1,1.088665724E-1,1.144123264E-2
7.784423360E-1,-9.819142520E-2,1.143790185E-1,8.643376641E-3
7.809121450E-1,-8.719984442E-2,1.180262268E-1,7.311064284E-3
7.834322860E-1,-7.770711929E-2,1.196749583E-1,5.312595516E-3
7.859278100E-1,-6.861408800E-2,1.207907721E-1,2.514739521E-3
7.883965600E-1,-5.778905004E-2,1.219065860E-1,2.647970803E-3
7.909170280E-1,-5.126071721E-2,1.199913844E-1,1.865237369E-3
7.933924500E-1,-4.338342324E-2,1.188422665E-1,1.332312386E-4
7.959074240E-1,-3.632216528E-2,1.166606024E-1,-1.049195998E-3
7.984031120E-1,-3.205876797E-2,1.155447885E-1,-1.448889729E-3
8.009052270E-1,-2.889452502E-2,1.113813147E-1,-2.231623279E-3
8.033931010E-1,-2.558039874E-2,1.088166162E-1,-5.529096350E-3
8.058828890E-1,-2.160011418E-2,1.059687957E-1,-6.977986079E-3
8.083826840E-1,-1.988476329E-2,1.034040973E-1,-9.892419912E-3
8.108780460E-1,-1.845252700E-2,9.977354109E-2,-1.437231991E-2
8.133280790E-1,-1.342304703E-2,9.492725879E-2,-1.635413431E-2
8.158663270E-1,-9.059724398E-3,9.019754827E-2,-2.189988457E-2
8.183235210E-1,-3.230857430E-3,8.520137519E-2,-2.479766496E-2
8.208674670E-1,4.080206621E-3,8.138763160E-2,-2.822836861E-2
8.233533480E-1,1.165773347E-2,7.585853338E-2,-3.021018393E-2
8.258225850E-1,2.243280970E-2,7.174502313E-2,-3.482331336E-2
8.283417910E-1,3.160911053E-2,6.766481698E-2,-3.718816862E-2
8.308129420E-1,3.797090426E-2,6.146956235E-2,-3.663859144E-2
8.333001650E-1,4.499885067E-2,5.554077402E-2,-3.742132336E-2
8.358006130E-1,4.991175234E-2,5.124406517E-2,-3.435700387E-2
8.383236440E-1,5.322587863E-2,4.776339978E-2,-3.170903400E-2
8.407930440E-1,5.292610824E-2,4.376646131E-2,-2.904441021E-2
8.433131050E-1,5.129402503E-2,3.847052157E-2,-2.199980803E-2
8.458088330E-1,4.418281093E-2,3.507312387E-2,-1.682044379E-2
8.483037460E-1,3.587251157E-2,3.115945682E-2,-1.337308530E-2
8.507626900E-1,2.438131720E-2,2.927756496E-2,-5.412518978E-3
8.532930450E-1,1.142457873E-2,2.792859823E-2,-8.993108640E-4
8.557890170E-1,-3.946975339E-3,2.726244181E-2,3.730474738E-3
8.582392930E-1,-2.076741867E-2,2.689605579E-2,9.176301770E-3
8.607781930E-1,-4.131833836E-2,2.974387445E-2,1.234054379E-2
8.632455600E-1,-5.933786184E-2,3.042668477E-2,1.538820844E-2
8.657683450E-1,-7.922262698E-2,3.312461823E-2,1.698698290E-2
8.682638290E-1,-9.909073263E-2,3.742132336E-2,1.737002283E-2
8.707589060E-1,-1.145622134E-1,3.995271772E-2,1.763648540E-2
8.732535750E-1,-1.293675303E-1,4.473238811E-2,1.642074995E-2
8.757500760E-1,-1.408087611E-1,5.016156286E-2,1.575459354E-2
8.782193550E-1,-1.489192098E-1,5.435834453E-2,1.427239645E-2
8.807394550E-1,-1.542484611E-1,5.743931606E-2,9.242917411E-3
8.832584990E-1,-1.556807011E-1,6.118644774E-2,6.977986079E-3
8.857282660E-1,-1.544316560E-1,6.689873338E-2,3.513973905E-3
8.882183380E-1,-1.489525288E-1,6.924693286E-2,8.493491332E-4
8.906945740E-1,-1.434400827E-1,7.252775878E-2,-8.326952229E-5
8.932143500E-1,-1.350132078E-1,7.472606748E-2,-3.530627815E-3
8.956834260E-1,-1.227226257E-1,7.382676005E-2,-3.663859097E-3
8.982038520E-1,-1.096493080E-1,7.211140543E-2,-4.729709122E-3
9.007018990E-1,-9.389471263E-2,7.121209800E-2,-3.497319994E-4
9.032183380E-1,-7.829000801E-2,6.748162210E-2,-4.829632526E-4
9.056896510E-1,-6.188591197E-2,6.308498979E-2,9.825803572E-4
9.081745550E-1,-4.456584901E-2,5.842189863E-2,3.897013841E-3
9.106789090E-1,-2.991041355E-2,5.232656747E-2,9.342840873E-3
9.131867210E-1,-1.485528331E-2,4.688074067E-2,1.200746559E-2
9.156444040E-1,-1.798621728E-3,4.225095734E-2,1.613763347E-2
9.181566110E-1,1.110815443E-2,3.483996913E-2,2.198315412E-2
9.206599060E-1,2.028445527E-2,2.982714400E-2,2.371516079E-2
9.231542910E-1,2.747894265E-2,2.657963149E-2,2.716251835E-2
9.256700790E-1,3.239184618E-2,2.189988457E-2,3.169238195E-2
9.281476590E-1,3.437365964E-2,1.910202950E-2,3.620558977E-2
9.306400900E-1,3.515639156E-2,1.682044379E-2,3.633882105E-2
9.330981800E-1,3.340773284E-2,1.617094129E-2,3.912002221E-2
9.356296740E-1,3.115945682E-2,1.740333065E-2,4.056891054E-2
9.380992780E-1,2.461447194E-2,1.745329238E-2,4.031910375E-2
9.406431020E-1,2.008460835E-2,2.028445527E-2,3.963629529E-2
9.431151890E-1,1.330646966E-2,2.341539040E-2,3.910337016E-2
9.455845890E-1,5.995405838E-3,2.814509906E-2,4.028579593E-2
9.481047310E-1,1.482197549E-3,3.217534348E-2,3.735470772E-2
9.505743360E-1,-4.879594315E-3,3.795424849E-2,3.442361951E-2
9.530695740E-1,-1.019218937E-2,4.305034503E-2,3.269161656E-2
9.555905710E-1,-1.508843806E-2,4.842955619E-2,3.214203566E-2
9.580825550E-1,-1.730340719E-2,5.390869081E-2,3.001033701E-2
9.605798700E-1,-2.036772482E-2,5.685643107E-2,2.681278624E-2
9.630495550E-1,-2.231623232E-2,6.406757236E-2,2.468108758E-2
9.655445500E-1,-2.135030553E-2,6.658231467E-2,2.135030553E-2
9.680653840E-1,-1.945176162E-2,7.082905620E-2,1.868568175E-2
9.705606630E-1,-1.863572001E-2,7.427641749E-2,1.497186068E-2
9.730550890E-1,-1.875229739E-2,7.667458057E-2,1.219065860E-2
9.755246940E-1,-1.790294796E-2,8.145424724E-2,9.526033886E-3
9.780238790E-1,-1.773640886E-2,8.623392135E-2,5.129402503E-3
9.805408070E-1,-1.891883649E-2,8.876531571E-2,6.161945057E-4
9.830354360E-1,-2.264931053E-2,9.157982469E-2,-4.413284827E-3
9.855302680E-1,-2.756221220E-2,9.574329853E-2,-7.610834669E-3
9.880042670E-1,-3.304134682E-2,9.604307264E-2,-1.185758039E-2
9.904977570E-1,-4.063552618E-2,1.003397778E-1,-1.755321585E-2
9.930156200E-1,-4.956202209E-2,1.022716314E-1,-2.206642367E-2
9.955113880E-1,-5.797224119E-2,1.049862131E-1,-2.816175297E-2
9.980054880E-1,-6.918031722E-2,1.075842232E-1,-3.387404233E-2
1.000462519E0,-8.133766800E-2,1.087333411E-1,-3.705493733E-2
1.002970413E0,-9.214605391E-2,1.107817739E-1,-4.499885067E-2
1.005490961E0,-1.035206690E-1,1.099324226E-1,-4.962863773E-2
1.007986201E0,-1.143290550E-1,1.107984260E-1,-5.267630145E-2
1.010480748E0,-1.231556237E-1,1.103154644E-1,-5.783900991E-2
1.012947301E0,-1.317323893E-1,1.091663465E-1,-6.153617799E-2
1.015433589E0,-1.377444416E-1,1.081338003E-1,-6.631585211E-2
1.017940546E0,-1.425740719E-1,1.065683365E-1,-6.803119928E-2
1.020435663E0,-1.448723227E-1,1.044366360E-1,-7.186160237E-2
1.022937129E0,-1.456883550E-1,1.020218208E-1,-7.384341210E-2
1.025451777E0,-1.442394704E-1,9.960700572E-2,-7.489261031E-2
1.027948806E0,-1.416081488E-1,9.677583724E-2,-7.700765878E-2
1.030440913E0,-1.368118227E-1,9.539356828E-2,-7.792361826E-2
1.032932327E0,-1.293342263E-1,9.441098571E-2,-7.752392441E-2
1.035405553E0,-1.195750386E-1,9.406125546E-2,-7.779038697E-2
1.037926020E0,-1.099657342E-1,9.344506264E-2,-8.057159185E-2
1.040395991E0,-9.835796058E-2,9.334513545E-2,-8.057159185E-2
1.042891352E0,-8.726646006E-2,9.337844700E-2,-8.296975493E-2
1.045394282E0,-7.282752544E-2,9.447760135E-2,-8.283652365E-2
1.047880814E0,-5.637346953E-2,9.634283930E-2,-8.138763160E-2
1.050401687E0,-4.205111042E-2,9.944046289E-2,-8.245348185E-2
1.052896804E0,-2.881125547E-2,1.015888229E-1,-8.431871980E-2
1.055386510E0,-1.357293222E-2,1.033374816E-1,-8.526799083E-2
1.057887243E0,-1.265696716E-3,1.064184532E-1,-8.753292263E-2
1.060355992E0,1.292342972E-2,1.088332683E-1,-9.151320904E-2
1.062876622E0,2.431470156E-2,1.139293611E-1,-9.537691623E-2
1.065372147E0,3.300803900E-2,1.158445626E-1,-1.008060873E-1
1.067841669E0,3.996936977E-2,1.192253083E-1,-1.063851416E-1
1.070362299E0,4.639777914E-2,1.207574606E-1,-1.116810888E-1
1.072831172E0,5.039471760E-2,1.212404296E-1,-1.187090352E-1
1.075351638E0,5.384207517E-2,1.197082698E-1,-1.257203221E-1
1.077847244E0,5.289280042E-2,1.176931486E-1,-1.302168816E-1
1.080308467E0,5.219333619E-2,1.155447885E-1,-1.352463663E-1
1.082837397E0,4.907905683E-2,1.118143201E-1,-1.431902796E-1
1.085306310E0,4.489892721E-2,1.078173816E-1,-1.462212801E-1
1.087783035E0,3.898679093E-2,1.047863662E-1,-1.516337991E-1
1.090296545E0,3.237519041E-2,9.840792418E-2,-1.554475427E-1
1.092817011E0,2.526397444E-2,9.419448674E-2,-1.583619863E-1
1.095321731E0,1.545482408E-2,8.824904263E-2,-1.604603678E-1
1.097806921E0,7.410987746E-3,8.405225724E-2,-1.604437232E-1
1.100302241E0,-2.498085669E-4,7.997205108E-2,-1.609599888E-1
1.102772212E0,-5.495788530E-3,7.494257390E-2,-1.586784124E-1
1.105266597E0,-1.382274088E-2,6.874731928E-2,-1.570796371E-1
1.107761713E0,-1.935183816E-2,6.346803159E-2,-1.540153176E-1
1.110257075E0,-2.324885130E-2,5.965428799E-2,-1.480365545E-1
1.112771317E0,-2.861140855E-2,5.677316338E-2,-1.443227381E-1
1.115272293E0,-3.249176964E-2,5.349234119E-2,-1.372781396E-1
1.117742101E0,-3.399062157E-2,4.941213503E-2,-1.285348386E-1
1.120237015E0,-3.480666131E-2,4.598142952E-2,-1.211071983E-1
1.122757808E0,-3.444027528E-2,4.066883400E-2,-1.123472452E-1
1.125253087E0,-3.367419541E-2,3.537289426E-2,-1.014555916E-1
1.127747472E0,-3.049330041E-2,3.072645515E-2,-8.979785442E-2
1.130217158E0,-2.717917226E-2,2.486428060E-2,-7.812346518E-2
1.132737503E0,-2.176665328E-2,1.698698290E-2,-6.776473671E-2
1.135232742E0,-1.632082649E-2,1.085834578E-2,-5.662327632E-2
1.137704748E0,-9.825804271E-3,2.448124113E-3,-4.559839144E-2
1.140223383E0,-3.480666084E-3,-6.361791864E-3,-3.325784951E-2
1.142693029E0,1.798621728E-3,-1.717017591E-2,-2.249942534E-2
1.145212723E0,7.727412041E-3,-2.692936361E-2,-1.345635485E-2
1.147708572E0,1.408920344E-2,-3.627220541E-2,-1.632082625E-3
1.150182368E0,2.161676809E-2,-4.711389542E-2,7.410987746E-3
1.152698481E0,2.716251835E-2,-5.672319978E-2,1.750325412E-2
1.155146195E0,3.069314733E-2,-6.553311646E-2,2.309896611E-2
1.157662836E0,3.492323682E-2,-7.314395159E-2,3.119276464E-2
1.160171992E0,3.713820875E-2,-8.047166467E-2,3.678847477E-2
1.162652665E0,3.913667798E-2,-8.326952159E-2,4.433269426E-2
1.165173131E0,3.815409541E-2,-8.791596442E-2,4.753024504E-2
1.167655838E0,3.868702054E-2,-8.963131905E-2,5.084437132E-2
1.170163122E0,3.680513054E-2,-9.068050981E-2,5.244314671E-2
1.172658971E0,3.402392939E-2,-8.918166161E-2,5.429172888E-2
1.175167028E0,3.109284118E-2,-8.783269674E-2,5.455819145E-2
1.177648555E0,2.616328374E-2,-8.565103263E-2,5.640677735E-2
1.180103144E0,1.938514598E-2,-8.120443672E-2,5.414184555E-2
1.182637731E0,1.448889729E-2,-7.529230416E-2,5.265964568E-2
1.185132726E0,7.061255630E-3,-6.898047030E-2,4.946209863E-2
1.187641311E0,1.482197549E-3,-6.441730261E-2,4.548181221E-2
1.190124140E0,-3.813744290E-3,-5.785566568E-2,3.897013888E-2
1.192612015E0,-1.165773347E-2,-5.220999196E-2,3.299138695E-2
1.195088374E0,-1.523832325E-2,-4.807982221E-2,2.649636194E-2
1.197609248E0,-2.081738040E-2,-4.273391888E-2,1.746994630E-2
1.200073359E0,-2.637978457E-2,-3.697166964E-2,1.095826924E-2
1.202598709E0,-2.984379791E-2,-3.337442502E-2,3.797090380E-3
1.205068639E0,-3.210872784E-2,-3.205876797E-2,-5.878828466E-3
1.207563553E0,-3.610566631E-2,-2.951071970E-2,-1.144123264E-2
1.210084590E0,-3.677182272E-2,-2.819506079E-2,-1.913533732E-2
1.212554112E0,-3.810413554E-2,-2.712921053E-2,-2.271592617E-2
1.215047887E0,-3.715486079E-2,-2.489758842E-2,-2.961064316E-2
1.217565343E0,-3.528962284E-2,-2.426473983E-2,-3.332446516E-2
1.220054601E0,-3.329115734E-2,-2.428139374E-2,-3.490658477E-2
1.222559646E0,-3.045999259E-2,-2.218300104E-2,-3.770444170E-2
1.225041011E0,-2.724578790E-2,-1.941845380E-2,-4.035241157E-2
1.227548905E0,-2.306565829E-2,-1.583786309E-2,-4.025248811E-2
1.230035558E0,-1.863572001E-2,-1.347300876E-2,-3.760451823E-2
1.232497065E0,-1.380608696E-2,-1.135796309E-2,-3.615562618E-2
1.235034134E0,-8.976454847E-3,-8.060489781E-3,-3.550612554E-2
1.237524042E0,-4.779670853E-3,-3.280819161E-3,-3.247511387E-2
1.240023229E0,1.265696716E-3,1.498851489E-4,-2.957733534E-2
1.242488968E0,5.579058081E-3,5.595711991E-3,-2.641309239E-2
1.244990839E0,9.759188630E-3,8.660030551E-3,-2.244946361E-2
1.247510045E0,1.647071168E-2,1.275689155E-2,-1.783633232E-2
1.250016882E0,2.065084130E-2,1.647071168E-2,-1.347300876E-2
1.252499059E0,2.458116412E-2,2.140026726E-2,-1.017553546E-2
1.254975215E0,3.022683784E-2,2.484762669E-2,-4.763016943E-3
1.257493729E0,3.467343003E-2,2.869467810E-2,1.848583459E-3
1.259985144E0,3.802086413E-2,2.882790938E-2,6.361791864E-3
1.262453893E0,4.461581260E-2,3.332446516E-2,1.137461700E-2
1.264974971E0,4.811313003E-2,3.440696746E-2,1.918529905E-2
1.267448156E0,5.146056414E-2,3.572262451E-2,2.408154681E-2
1.269945633E0,5.682312325E-2,3.558939323E-2,3.202546015E-2
1.272460485E0,5.937116966E-2,3.652201220E-2,3.758786246E-2
1.274955318E0,6.406757236E-2,3.797090426E-2,4.315026850E-2
1.277449783E0,6.699866056E-2,3.717151657E-2,4.937882721E-2
1.279929967E0,6.836427748E-2,3.838725016E-2,5.585719645E-2
1.282440140E0,7.077909261E-2,3.958633170E-2,6.048698351E-2
1.284934646E0,7.252775878E-2,3.945310041E-2,6.460049748E-2
1.287408401E0,7.440964878E-2,4.038571939E-2,6.883058697E-2
1.289926143E0,7.281087339E-2,4.148487747E-2,7.187825441E-2
1.292392207E0,7.362691313E-2,4.110183567E-2,7.572530210E-2
1.294889562E0,7.177832723E-2,4.404957965E-2,7.690773159E-2
1.297410721E0,6.991308928E-2,4.474904388E-2,7.928924263E-2
1.299922196E0,6.804785877E-2,4.476569593E-2,8.020520210E-2
1.302400426E0,6.511677057E-2,4.638112336E-2,8.073812723E-2
1.304866409E0,6.138629466E-2,4.748028144E-2,7.967227697E-2
1.307401688E0,5.778905004E-2,4.789663106E-2,7.875631750E-2
1.309885615E0,5.472473055E-2,4.926225170E-2,7.689107955E-2
1.312394282E0,4.987844452E-2,4.634781554E-2,7.650803775E-2
1.314875484E0,4.748028144E-2,4.609800875E-2,7.465945184E-2
1.317346918E0,4.265065119E-2,4.399961606E-2,7.161179185E-2
1.319842321E0,3.887021542E-2,4.026914015E-2,6.871400774E-2
1.322361120E0,3.563935682E-2,3.722147644E-2,6.753158569E-2
1.324856034E0,3.345769644E-2,3.377411887E-2,6.568299979E-2
1.327350581E0,3.142591938E-2,2.937748842E-2,6.411753595E-2
1.329830155E0,2.884456329E-2,2.498085797E-2,6.186925620E-2
1.332315384E0,2.746228874E-2,1.911868341E-2,6.030378863E-2
1.334811071E0,2.501416579E-2,1.485528331E-2,5.992075056E-2
1.337332148E0,2.563035861E-2,9.509379975E-3,5.755589530E-2
1.339800533E0,2.331546694E-2,4.180130083E-3,5.465811491E-2
1.342295161E0,2.248277143E-2,4.996171629E-5,5.427507684E-2
1.344815872E0,2.204976976E-2,-2.764548175E-3,5.255972221E-2
1.347311437E0,2.123372816E-2,-4.496554378E-3,5.202679709E-2
1.349793899E0,2.239950188E-2,-7.977220230E-3,5.006163940E-2
1.352275589E0,2.105053514E-2,-9.692572989E-3,4.979517683E-2
1.354795894E0,2.171669155E-2,-9.975688532E-3,4.794659093E-2
1.357291744E0,2.384839207E-2,-9.875766002E-3,4.503215849E-2
1.359786006E0,2.238284796E-2,-1.039203629E-2,4.423277080E-2
1.362277420E0,2.145022899E-2,-8.926493116E-3,4.238418862E-2
1.364751176E0,2.171669155E-2,-8.660030551E-3,4.225095734E-2
1.367271194E0,2.279919572E-2,-6.428407039E-3,3.773774952E-2
1.369766882E0,2.199980803E-2,-5.362557247E-3,3.573928028E-2
1.372236568E0,2.241615579E-2,-4.563170020E-3,3.455685079E-2
1.374769607E0,2.133365162E-2,-4.313361365E-3,2.937748842E-2
1.377226029E0,2.070080303E-2,-1.249042805E-3,2.726244181E-2
1.379746333E0,2.148353681E-2,-1.532159280E-3,2.459781803E-2
1.382242142E0,1.936849207E-2,8.826569538E-4,2.128368989E-2
1.384736242E0,1.965160854E-2,3.247511340E-3,1.572128572E-2
1.387253535E0,1.860241219E-2,6.578292232E-3,1.000899635E-2
1.389701371E0,1.687040552E-2,7.111217361E-3,6.178598851E-3
1.392221634E0,1.565467007E-2,7.494257297E-3,5.995405954E-4
1.394717321E0,1.259035245E-2,9.226263501E-3,-3.763782559E-3
1.397211543E0,1.005895808E-2,9.909073822E-3,-8.676684462E-3
1.399681351E0,7.361026015E-3,8.976454847E-3,-1.410585735E-2
1.402182165E0,1.615428715E-3,8.593414910E-3,-1.766979322E-2
1.404696773E0,-1.598774921E-3,7.544219028E-3,-2.071745694E-2
1.407192581E0,-8.426875807E-3,7.177833002E-3,-2.574693598E-2
1.409691442E0,-1.485528331E-2,4.946209956E-3,-2.799521387E-2
1.412158728E0,-2.171669155E-2,1.998468651E-4,-2.956068143E-2
1.414651362E0,-2.829498425E-2,-2.165007638E-3,-3.272492439E-2
1.417172236E0,-3.314127028E-2,-6.528330501E-3,-3.310796246E-2
1.419667476E0,-4.065218195E-2,-1.140792482E-2,-3.415715694E-2
1.422161942E0,-4.578158259E-2,-1.683709770E-2,-3.254172951E-2
1.424632685E0,-5.131068081E-2,-2.281584963E-2,-3.610566631E-2
1.427126786E0,-5.737270042E-2,-2.836159989E-2,-3.555608541E-2
1.429647050E0,-6.273525953E-2,-3.205876797E-2,-3.462346643E-2
1.432142777E0,-6.691539288E-2,-3.655532002E-2,-3.367419541E-2
1.434637162E0,-6.989643723E-2,-4.040237144E-2,-3.445692733E-2
1.437106970E0,-7.272760570E-2,-4.371650144E-2,-3.285815567E-2
1.439601802E0,-7.354364544E-2,-4.556508362E-2,-3.045999259E-2
1.442122269E0,-7.327718288E-2,-4.583154619E-2,-3.125938028E-2
1.444617834E0,-7.154517621E-2,-4.651435465E-2,-3.072645515E-2
1.447117671E0,-6.977985799E-2,-4.438265786E-2,-2.689605579E-2
1.449581660E0,-6.589949876E-2,-4.373315349E-2,-2.504747361E-2
1.452077103E0,-6.478369236E-2,-3.813744336E-2,-2.637978457E-2
1.454597732E0,-6.035375223E-2,-3.615562618E-2,-2.241615579E-2
1.457092687E0,-5.469142273E-2,-3.072645515E-2,-2.031776309E-2
1.459562170E0,-5.077775568E-2,-2.554709092E-2,-1.781967841E-2
1.462064530E0,-4.817974567E-2,-1.930187643E-2,-1.995137706E-2
1.464552322E0,-4.331680760E-2,-1.358958613E-2,-1.600440219E-2
1.467048091E0,-3.965294734E-2,-6.794793066E-3,-1.257369854E-2
1.469542842E0,-3.775440156E-2,-3.880359931E-3,-1.325650793E-2
1.472063471E0,-3.503981605E-2,2.897779457E-3,-1.353962440E-2
1.474548376E0,-3.285815567E-2,8.093797602E-3,-1.328981575E-2
1.477052689E0,-3.094295599E-2,1.274023764E-2,-1.435566600E-2
1.479548620E0,-3.024349175E-2,1.580455527E-2,-1.410585735E-2
1.482043452E0,-3.074310906E-2,1.968491636E-2,-1.372281741E-2
1.484523962E0,-2.992706746E-2,2.233288623E-2,-1.625421084E-2
1.487033320E0,-3.165907413E-2,2.446458675E-2,-1.850248873E-2
1.489528804E0,-3.205876797E-2,2.406489290E-2,-2.075076476E-2
1.492032100E0,-3.232523054E-2,2.393166162E-2,-2.314892784E-2
1.494518347E0,-3.513973951E-2,2.434800938E-2,-2.473104931E-2
1.497012039E0,-3.795424849E-2,2.394831553E-2,-2.764548175E-2
1.499508825E0,-4.036906362E-2,2.221630886E-2,-3.160911053E-2
1.502003617E0,-4.424942657E-2,2.183326893E-2,-3.479000553E-2
1.504498327E0,-4.696401209E-2,1.811944880E-2,-3.782101721E-2
1.506968338E0,-5.006163940E-2,1.532159280E-2,-4.006929323E-2
1.509462357E0,-5.260968581E-2,1.385604870E-2,-4.456584901E-2
1.511983515E0,-5.612365901E-2,1.080838405E-2,-4.628119990E-2
1.514479081E0,-5.923793837E-2,6.811446976E-3,-5.049464107E-2
1.516949499E0,-6.166940928E-2,3.630551277E-3,-5.207676068E-2
1.519468623E0,-6.276856363E-2,-9.159647743E-4,-5.657331645E-2
1.521961380E0,-6.386772543E-2,-4.646439571E-3,-5.602373555E-2
1.524458858E0,-6.603273004E-2,-7.177833002E-3,-5.813878030E-2
1.526954342E0,-6.646573544E-2,-1.104153879E-2,-5.838859081E-2
1.529423416E0,-6.703196466E-2,-1.477201376E-2,-5.983747914E-2
1.531944372E0,-6.533326954E-2,-1.785298623E-2,-5.995405838E-2
1.534404333E0,-6.534992158E-2,-2.145022899E-2,-5.902143940E-2
1.536933711E0,-6.096994504E-2,-2.469774149E-2,-5.940447748E-2
1.539429195E0,-5.885490030E-2,-2.751225047E-2,-5.873832107E-2
1.541898392E0,-5.605704337E-2,-2.779536694E-2,-5.515773222E-2
1.544393997E0,-5.179364234E-2,-3.047664650E-2,-5.277622491E-2
1.546913814E0,-4.634781554E-2,-3.319123387E-2,-5.144391209E-2
1.549411576E0,-3.993606195E-2,-3.429038823E-2,-4.679747298E-2
1.551904577E0,-3.392400593E-2,-3.565600887E-2,-4.348334670E-2
1.554399857E0,-2.644640021E-2,-3.623889759E-2,-4.003598541E-2
1.556894608E0,-1.735336892E-2,-3.562270105E-2,-3.409054503E-2
1.559377030E0,-9.059724398E-3,-3.645539656E-2,-2.732905746E-2
1.561884191E0,9.825803572E-4,-3.345769644E-2,-2.229957841E-2
1.564378861E0,1.060853712E-2,-3.430704400E-2,-1.528828498E-2
1.566895829E0,2.078407258E-2,-3.354096413E-2,-6.278522313E-3
1.569369136E0,2.827833034E-2,-3.157580271E-2,1.998468651E-4
1.571822912E0,3.737136349E-2,-3.215869144E-2,7.361026015E-3
1.574359371E0,4.340007529E-2,-3.217534348E-2,1.410585735E-2
1.576855098E0,5.021152273E-2,-3.352431208E-2,2.244946361E-2
1.579349564E0,5.262633786E-2,-3.312461823E-2,2.814509906E-2
1.581845129E0,5.582388863E-2,-3.405723721E-2,3.397396579E-2
1.584313756E0,5.688973889E-2,-3.537289426E-2,4.100191221E-2
1.586807043E0,5.542419478E-2,-3.680513054E-2,4.776339978E-2
1.589330114E0,5.274291709E-2,-3.903675452E-2,5.372549593E-2
1.591824622E0,4.842955619E-2,-4.325019196E-2,5.825535953E-2
1.594297236E0,4.186791554E-2,-4.664758593E-2,6.383441389E-2
1.596789872E0,3.287480772E-2,-5.242649093E-2,6.623257697E-2
1.599312496E0,2.296573482E-2,-5.595711991E-2,6.703196466E-2
1.601805293E0,8.493491448E-3,-6.116979197E-2,6.798124313E-2
1.604300573E0,-6.528330501E-3,-6.613265723E-2,6.601607800E-2
1.606768957E0,-2.351531386E-2,-6.961332262E-2,6.245214492E-2
1.609264928E0,-4.198449478E-2,-7.189490646E-2,5.717285350E-2
1.611759598E0,-6.473372877E-2,-7.547549903E-2,4.884590209E-2
1.614280432E0,-8.866538852E-2,-7.612499595E-2,3.996936977E-2
1.616729365E0,-1.119142398E-1,-7.424310595E-2,2.871133201E-2
1.619245031E0,-1.368950903E-1,-7.169505954E-2,1.493855286E-2
1.621765173E0,-1.660061181E-1,-6.951339543E-2,2.614662983E-3
1.624261104E0,-1.935017258E-1,-6.281852722E-2,-1.184092648E-2
1.626755122E0,-2.212471217E-1,-5.599042773E-2,-2.854479291E-2
1.629211869E0,-2.496753484E-1,-5.022817850E-2,-4.498219863E-2
1.631719763E0,-2.760717869E-1,-4.166806862E-2,-5.983747914E-2
1.634240392E0,-3.021018207E-1,-3.525631502E-2,-7.799023390E-2
1.636709794E0,-3.278321028E-1,-2.644640021E-2,-9.551014751E-2
1.639230139E0,-3.509144187E-1,-1.953503117E-2,-1.137961298E-1
1.641696325E0,-3.727810085E-1,-1.382274088E-2,-1.293175668E-1
1.644223832E0,-3.922660649E-1,-7.061255630E-3,-1.454885155E-1
1.646715613E0,-4.070713818E-1,-3.130934201E-3,-1.627252996E-1
1.649211136E0,-4.240250587E-1,1.348966267E-3,-1.743830442E-1
1.651705480E0,-4.323187172E-1,1.632082625E-3,-1.888219714E-1
1.654178910E0,-4.412785172E-1,3.513973905E-3,-2.016787827E-1
1.656656124E0,-4.490225911E-1,4.996171221E-3,-2.136029899E-1
1.659190832E0,-4.596810937E-1,1.077507623E-2,-2.259268761E-1
1.661686438E0,-4.714720547E-1,2.324885130E-2,-2.348533720E-1
1.664181148E0,-4.881426096E-1,2.934418060E-2,-2.457283586E-1
1.666666906E0,-5.023650527E-1,3.888686746E-2,-2.562203109E-1
1.669145503E0,-5.199182630E-1,5.019487068E-2,-2.676449120E-1
1.671665971E0,-5.393366814E-1,6.205245107E-2,-2.785365582E-1
1.674161535E0,-5.569398999E-1,6.748162210E-2,-2.872798443E-1
1.676656042E0,-5.727777481E-1,6.065352261E-2,-2.926923633E-1
1.679140662E0,-5.802053809E-1,5.001167580E-2,-2.974220812E-1
1.681620479E0,-5.715453625E-1,3.179230541E-2,-2.985711992E-1
1.684141353E0,-5.451322794E-1,1.145788655E-2,-2.940080464E-1
1.686636796E0,-4.977352619E-1,-1.075842232E-2,-2.803018689E-1
1.689131018E0,-4.337509573E-1,-2.896114066E-2,-2.680612504E-1
1.691635331E0,-3.566766679E-1,-4.806317016E-2,-2.510742545E-1
1.694095617E0,-2.677281797E-1,-6.951339543E-2,-2.319389284E-1
1.696616614E0,-1.760817319E-1,-8.908173442E-2,-2.080572397E-1
1.699111893E0,-8.631718904E-2,-1.103987321E-1,-1.839090735E-1
1.701606075E0,-1.049195998E-3,-1.280352175E-1,-1.560470909E-1
1.704116777E0,7.912269980E-2,-1.451054662E-1,-1.262199432E-1
1.706595861E0,1.515005678E-1,-1.531826109E-1,-9.732542187E-2
1.709091263E0,2.189821899E-1,-1.567965150E-1,-6.699866056E-2
1.711587113E0,2.817174494E-1,-1.515838355E-1,-3.920329362E-2
1.714081416E0,3.398728967E-1,-1.349965483E-1,-1.330646966E-2
1.716602535E0,3.945976198E-1,-1.134630516E-1,8.993108757E-3
1.719057287E0,4.369485080E-1,-8.396898955E-2,2.531393617E-2
1.721541459E0,4.667922854E-1,-4.827966914E-2,3.618893400E-2
1.724061600E0,4.787331522E-1,-1.139127091E-2,4.136829823E-2
1.726557247E0,4.754523337E-1,2.866137028E-2,3.951971605E-2
1.729027747E0,4.606803060E-1,6.799789518E-2,3.437365964E-2
1.731547481E0,4.401627183E-1,1.081504598E-1,2.589682117E-2
1.734042029E0,4.141659737E-1,1.467542052E-1,1.413916517E-2
1.736537105E0,3.805084229E-1,1.819272488E-1,3.164242022E-3
1.739031734E0,3.423210084E-1,2.180828899E-1,-1.070846058E-2
1.741526770E0,3.014356792E-1,2.503914535E-1,-2.140026726E-2
1.744021480E0,2.574360669E-1,2.795191407E-1,-3.314127028E-2
1.746492915E0,2.086234689E-1,3.062819541E-1,-4.448258132E-2
1.749012203E0,1.575292796E-1,3.313294351E-1,-5.460815504E-2
1.751481889E0,1.047697142E-1,3.511975408E-1,-6.460049748E-2
1.754002192E0,5.370884389E-2,3.659695685E-1,-7.615830749E-2
1.756497758E0,2.314892830E-3,3.719483018E-1,-8.385241032E-2
1.758962968E0,-4.548181221E-2,3.756454885E-1,-9.048066288E-2
1.761457556E0,-8.896516263E-2,3.696833849E-1,-9.759188443E-2
1.763957149E0,-1.273024529E-1,3.556940854E-1,-1.032375544E-1
1.766462073E0,-1.600939929E-1,3.320455551E-1,-1.089831516E-1
1.768972367E0,-1.831096858E-1,2.981881797E-1,-1.141791716E-1
1.771468094E0,-1.995137781E-1,2.542551756E-1,-1.213236973E-1
1.773937618E0,-2.063751817E-1,2.022283673E-1,-1.289678365E-1
1.776457475E0,-2.075409591E-1,1.441728473E-1,-1.351464391E-1
1.778952429E0,-2.024781704E-1,8.017189801E-2,-1.439397037E-1
1.781448238E0,-1.903374791E-1,1.625421084E-2,-1.522166878E-1
1.783920243E0,-1.761983186E-1,-4.886255786E-2,-1.590447873E-1
1.786437495E0,-1.571295857E-1,-1.136295944E-1,-1.672051996E-1
1.788932816E0,-1.365120560E-1,-1.729175001E-1,-1.717850268E-1
1.791426225E0,-1.121473983E-1,-2.290578038E-1,-1.781135052E-1
1.793923010E0,-8.864873648E-2,-2.767545879E-1,-1.804783642E-1
1.796403438E0,-6.293510646E-2,-3.171236515E-1,-1.811445206E-1
1.798917069E0,-3.675516695E-2,-3.482997715E-1,-1.821271032E-1
1.801408688E0,-1.338973921E-2,-3.672852218E-1,-1.784798950E-1
1.803909338E0,6.994639989E-3,-3.740966618E-1,-1.713187248E-1
1.806398311E0,2.789529040E-2,-3.699498475E-1,-1.629917622E-1
1.808860714E0,3.832063451E-2,-3.542452157E-1,-1.516504586E-1
1.811388016E0,5.176033452E-2,-3.308131695E-1,-1.360957175E-1
1.813883703E0,5.743931606E-2,-2.955401838E-1,-1.176598370E-1
1.816352698E0,6.165275723E-2,-2.568032146E-1,-9.819142520E-2
1.818872391E0,6.221899018E-2,-2.104220837E-1,-7.674119622E-2
1.821341141E0,6.091998518E-2,-1.617427170E-1,-5.305933952E-2
1.823863196E0,5.762251094E-2,-1.137128621E-1,-2.644640021E-2
1.826358924E0,5.434169248E-2,-6.366787851E-2,9.492725949E-4
1.828853511E0,4.851282388E-2,-1.345635485E-2,3.085968643E-2
1.831348466E0,4.241749644E-2,3.447358310E-2,5.945444107E-2
1.833806393E0,3.094295599E-2,7.858977467E-2,9.136331826E-2
1.836338456E0,2.155015245E-2,1.157612950E-1,1.247710586E-1
1.838833655E0,1.159111783E-2,1.500017196E-1,1.556473970E-1
1.841350501E0,7.660796400E-4,1.755654663E-1,1.901542842E-1
1.843824336E0,-9.192955680E-3,1.948673427E-1,2.238617837E-1
1.846276159E0,-1.986810938E-2,2.060254514E-1,2.574693561E-1
1.848798458E0,-3.167572618E-2,2.114546299E-1,2.909770310E-1
1.851330725E0,-4.088533670E-2,2.067249268E-1,3.247677982E-1
1.853803747E0,-4.921228811E-2,1.965160817E-1,3.567266464E-1
1.856299434E0,-5.572396517E-2,1.795957088E-1,3.843388259E-1
1.858793575E0,-6.268529594E-2,1.578623652E-1,4.098359346E-1
1.861289180E0,-6.649903953E-2,1.315491945E-1,4.291211665E-1
1.863784054E0,-6.992974877E-2,1.018885896E-1,4.441929460E-1
1.866254269E0,-7.032944262E-2,6.856412441E-2,4.547681808E-1
1.868748612E0,-6.941347569E-2,3.467343003E-2,4.583154619E-1
1.871269161E0,-6.501684338E-2,1.132465550E-3,4.569664896E-1
1.873764319E0,-6.037040427E-2,-3.320788592E-2,4.549513757E-1
1.876258988E0,-5.279287696E-2,-6.786466390E-2,4.440763593E-1
1.878733557E0,-4.358327016E-2,-9.814146161E-2,4.319856465E-1
1.881223507E0,-3.409054503E-2,-1.265863329E-1,4.144490659E-1
1.883744095E0,-2.471439540E-2,-1.520834565E-1,3.938648403E-1
1.886239905E0,-1.343970094E-2,-1.733504981E-1,3.718150854E-1
1.888734534E0,-2.664624713E-3,-1.922193766E-1,3.460348248E-1
1.891203732E0,8.943147026E-3,-2.047097981E-1,3.177231848E-1
1.893698848E0,1.845252700E-2,-2.123705894E-1,2.882124782E-1
1.896219356E0,2.946075797E-2,-2.172501832E-1,2.553709745E-1
1.898714921E0,3.718816862E-2,-2.151684463E-1,2.251607925E-1
1.901209183E0,4.559839144E-2,-2.101722807E-1,1.909703314E-1
1.903678910E0,5.259303004E-2,-2.000800073E-1,1.568964422E-1
1.906176673E0,5.810547248E-2,-1.889218986E-1,1.207075045E-1
1.908694454E0,6.381776184E-2,-1.728342175E-1,8.608403057E-2
1.911190222E0,6.781470031E-2,-1.523166150E-1,5.196018144E-2
1.913700354E0,7.061255723E-2,-1.320654601E-1,1.482197549E-2
1.916160599E0,7.369352877E-2,-1.098325029E-1,-2.274923399E-2
1.918649206E0,7.664126903E-2,-8.676684648E-2,-5.712289363E-2
1.921169592E0,8.093797415E-2,-6.278522313E-2,-9.084705263E-2
1.923665361E0,8.325286955E-2,-3.638878092E-2,-1.253705919E-1
1.926136592E0,8.646707237E-2,-1.438897382E-2,-1.586784124E-1
1.928642940E0,9.247913212E-2,7.177833002E-3,-1.937182248E-1
1.931132931E0,9.742534161E-2,2.702928707E-2,-2.226627022E-1
1.933645056E0,1.036872119E-1,4.581489041E-2,-2.529228628E-1
1.936140377E0,1.093828455E-1,6.047032773E-2,-2.796024084E-1
1.938635087E0,1.136129424E-1,7.409322262E-2,-3.024182618E-1
1.941126338E0,1.191420332E-1,8.396898955E-2,-3.233855367E-1
1.943624060E0,1.270692945E-1,9.172970802E-2,-3.394398987E-1
1.946120195E0,1.321653873E-1,9.669256955E-2,-3.533625603E-1
1.948616044E0,1.373947114E-1,9.850784391E-2,-3.597243428E-1
1.951110836E0,1.397928745E-1,9.965696931E-2,-3.645040095E-1
1.953560828E0,1.418912709E-1,9.524368495E-2,-3.655532002E-1
1.956074907E0,1.434567422E-1,8.871535212E-2,-3.595744669E-1
1.958595373E0,1.413916498E-1,8.075478673E-2,-3.513307869E-1
1.961091061E0,1.353296340E-1,7.177832723E-2,-3.367252946E-1
1.963583533E0,1.289511919E-1,5.895482376E-2,-3.226527572E-1
1.966080481E0,1.197915375E-1,4.736370593E-2,-3.012858033E-1
1.968550045E0,1.075509191E-1,3.340773284E-2,-2.783200443E-1
1.971070268E0,9.169639647E-2,1.883556694E-2,-2.516404986E-1
1.973566402E0,7.277756184E-2,4.013590980E-3,-2.216634750E-1
1.976035234E0,5.199348927E-2,-1.090830751E-2,-1.910036355E-1
1.978530066E0,2.972722054E-2,-2.661293931E-2,-1.588949114E-1
1.981016312E0,2.931087278E-3,-4.041902721E-2,-1.252040565E-1
1.983545528E0,-2.493089624E-2,-5.339241773E-2,-9.124674648E-2
1.986040646E0,-5.196018144E-2,-6.506680697E-2,-5.755589530E-2
1.988510250E0,-8.220367134E-2,-7.655800134E-2,-2.321554348E-2
1.991035396E0,-1.117810085E-1,-8.766615391E-2,9.542687796E-3
1.993500200E0,-1.423908919E-1,-9.556010365E-2,4.243414849E-2
1.996020708E0,-1.710189432E-1,-1.029544398E-1,7.252775878E-2
1.998516638E0,-1.976318955E-1,-1.110315844E-1,1.013057008E-1
2.001010779E0,-2.227459699E-1,-1.165939867E-1,1.292676032E-1
2.003503536E0,-2.469607592E-1,-1.229724362E-1,1.541984975E-1
2.005975541E0,-2.664791346E-1,-1.282017529E-1,1.785964817E-1
2.008495968E0,-2.850482464E-1,-1.331812739E-1,1.988809258E-1
2.010991573E0,-2.995038331E-1,-1.391267180E-1,2.170503438E-1
2.013485958E0,-3.096793592E-1,-1.436399221E-1,2.342871279E-1
2.015988725E0,-3.161077797E-1,-1.482197493E-1,2.459615171E-1
2.018447954E0,-3.206709325E-1,-1.523998827E-1,2.584186494E-1
2.020946285E0,-3.201879859E-1,-1.590447873E-1,2.673118114E-1
2.023441158E0,-3.176732361E-1,-1.631749570E-1,2.748726904E-1
2.025935869E0,-3.079473674E-1,-1.676382124E-1,2.799354792E-1
2.028432492E0,-3.001033664E-1,-1.724844873E-1,2.839157581E-1
2.030937781E0,-2.869134843E-1,-1.768478155E-1,2.873797715E-1
2.033446285E0,-2.687773705E-1,-1.816608012E-1,2.884456217E-1
2.035941321E0,-2.501083314E-1,-1.850082278E-1,2.893782556E-1
2.038427445E0,-2.271426022E-1,-1.871898919E-1,2.884622812E-1
2.040906205E0,-2.041768730E-1,-1.888552755E-1,2.865970433E-1
2.043400875E0,-1.794957817E-1,-1.914532930E-1,2.877961397E-1
2.045897212E0,-1.506345719E-1,-1.918363273E-1,2.831496894E-1
2.048416744E0,-1.228725091E-1,-1.927356422E-1,2.802352607E-1
2.050911495E0,-9.309532493E-2,-1.947174519E-1,2.761383951E-1
2.053406246E0,-6.238552928E-2,-1.959165335E-1,2.713587284E-1
2.055902340E0,-3.434035182E-2,-1.952337325E-1,2.655298710E-1
2.058372473E0,-5.862174556E-3,-1.937348694E-1,2.606169581E-1
2.060892208E0,2.321554348E-2,-1.967991889E-1,2.538554668E-1
2.063383378E0,4.954536632E-2,-1.954335719E-1,2.456450909E-1
2.065882076E0,7.236121595E-2,-1.964494586E-1,2.388836145E-1
2.068377438E0,9.745865315E-2,-1.978816986E-1,2.313227355E-1
2.070847530E0,1.192086488E-1,-1.986311227E-1,2.221797407E-1
2.073367102E0,1.350964755E-1,-1.999800950E-1,2.139693648E-1
2.075860389E0,1.516337991E-1,-2.013457119E-1,2.051094919E-1
2.078356970E0,1.640243083E-1,-2.049596012E-1,1.963661909E-1
2.080852739E0,1.756154299E-1,-2.069580704E-1,1.874896586E-1
2.083321570E0,1.806448996E-1,-2.099557817E-1,1.792959422E-1
2.085842159E0,1.842088401E-1,-2.136362940E-1,1.699031442E-1
2.088337195E0,1.847251058E-1,-2.155348361E-1,1.618259996E-1
2.090832312E0,1.813610196E-1,-2.174000740E-1,1.550811678E-1
2.093328040E0,1.753156632E-1,-2.193818837E-1,1.485861391E-1
2.095822384E0,1.642075032E-1,-2.215968519E-1,1.398594975E-1
2.098318030E0,1.505679488E-1,-2.216468155E-1,1.340306252E-1
2.100811845E0,1.362622529E-1,-2.220798135E-1,1.295340657E-1
2.103283402E0,1.186257675E-1,-2.218300104E-1,1.230557039E-1
2.105802446E0,9.860777110E-2,-2.177997679E-1,1.207741201E-1
2.108272905E0,7.739069313E-2,-2.159178704E-1,1.157446355E-1
2.110767370E0,5.484130979E-2,-2.104220837E-1,1.122806296E-1
2.113287919E0,3.139261156E-2,-2.039603740E-1,1.104153916E-1
2.115783077E0,7.127871271E-3,-1.979150027E-1,1.081504598E-1
2.118278031E0,-1.776971668E-2,-1.871732324E-1,1.061353385E-1
2.120770707E0,-4.066883400E-2,-1.773974001E-1,1.029377878E-1
2.123242509E0,-6.501684338E-2,-1.652067304E-1,1.019718572E-1
2.125763709E0,-8.616730571E-2,-1.530327350E-1,1.002231985E-1
2.128258093E0,-1.072844565E-1,-1.387270242E-1,9.819142520E-2
2.130752723E0,-1.254538596E-1,-1.231056675E-1,9.854115546E-2
2.133253415E0,-1.427073032E-1,-1.080338806E-1,9.597645700E-2
2.135742794E0,-1.550978124E-1,-8.938150853E-2,9.472741187E-2
2.138238155E0,-1.677714437E-1,-7.007963210E-2,9.387806058E-2
2.140724606E0,-1.775139719E-1,-5.332580209E-2,9.329517186E-2
2.143227901E0,-1.826933324E-1,-3.420712054E-2,9.177967161E-2
2.145737464E0,-1.873564273E-1,-1.642074995E-2,9.159647673E-2
2.148173458E0,-1.890717745E-1,2.281585010E-3,9.192955494E-2
2.150713497E0,-1.886720806E-1,1.841921918E-2,9.241251647E-2
2.153209143E0,-1.865237355E-1,3.402392939E-2,9.276224673E-2
2.155703040E0,-1.809280217E-1,4.867936298E-2,9.669256955E-2
2.158172889E0,-1.742664576E-1,6.210241094E-2,9.610968828E-2
2.160687455E0,-1.669387370E-1,7.525899261E-2,1.009726226E-1
2.163188961E0,-1.568131745E-1,8.693338186E-2,1.026546657E-1
2.165636960E0,-1.472371668E-1,9.647607058E-2,1.060687229E-1
2.168178178E0,-1.383106858E-1,1.085668057E-1,1.106651947E-1
2.170648149E0,-1.262199432E-1,1.159611419E-1,1.150118634E-1
2.173143104E0,-1.157446355E-1,1.219065860E-1,1.189588457E-1
2.175663896E0,-1.047197506E-1,1.294341534E-1,1.239716709E-1
2.178133012E0,-9.399463981E-2,1.344303191E-1,1.271192580E-1
2.180654334E0,-8.393567801E-2,1.387769878E-1,1.306831986E-1
2.183123043E0,-7.587519288E-2,1.423409283E-1,1.363621801E-1
2.185629147E0,-6.661561877E-2,1.461546719E-1,1.392599493E-1
2.188139157E0,-5.857178196E-2,1.495687217E-1,1.405756176E-1
2.190615964E0,-5.252641439E-2,1.531160027E-1,1.409586519E-1
2.193128821E0,-4.554842785E-2,1.569297463E-1,1.402758360E-1
2.195598385E0,-3.885355964E-2,1.605935991E-1,1.365620196E-1
2.198087318E0,-3.430704400E-2,1.606935263E-1,1.344303191E-1
2.200613888E0,-3.109284118E-2,1.626420319E-1,1.292676032E-1
2.203109493E0,-2.894448675E-2,1.639410406E-1,1.244879365E-1
2.205603919E0,-2.736236528E-2,1.632415801E-1,1.202578470E-1
2.208073604E0,-2.563035861E-2,1.637411863E-1,1.142957509E-1
2.210568600E0,-2.244946361E-2,1.612930745E-1,1.075509191E-1
2.213088823E0,-2.208307758E-2,1.584618986E-1,1.025214344E-1
2.215584428E0,-2.319888957E-2,1.538987309E-1,9.551014751E-2
2.218079464E0,-2.338208258E-2,1.490857601E-1,8.996439725E-2
2.220553992E0,-2.408154681E-2,1.454552114E-1,8.401895314E-2
2.223062334E0,-2.732905746E-2,1.405256540E-1,7.912269980E-2
2.225564449E0,-3.072645515E-2,1.349132806E-1,7.172837108E-2
2.228060014E0,-3.492323682E-2,1.300003827E-1,6.711523980E-2
2.230529009E0,-3.738801554E-2,1.237218603E-1,6.023717299E-2
2.233013302E0,-4.185126349E-2,1.174599901E-1,5.575727299E-2
2.235544552E0,-4.551512003E-2,1.126636639E-1,5.061121657E-2
2.238039792E0,-4.902909696E-2,1.085501537E-1,4.784666747E-2
2.240514197E0,-5.362557247E-2,1.025713980E-1,4.468242824E-2
2.243003903E0,-5.658996850E-2,9.950707853E-2,4.231757298E-2
2.245524736E0,-5.852182209E-2,9.272894263E-2,4.246745631E-2
2.248019975E0,-6.015390530E-2,8.848219365E-2,4.419946298E-2
2.250492428E0,-6.258537620E-2,8.383575827E-2,4.646439478E-2
2.253010291E0,-6.221899018E-2,7.970558852E-2,4.859609529E-2
2.255478919E0,-6.318491697E-2,7.560873032E-2,5.629019812E-2
2.257974443E0,-6.200248748E-2,7.201148570E-2,6.293510646E-2
2.260495399E0,-6.057025120E-2,6.683211774E-2,7.247779518E-2
2.262964312E0,-5.683977902E-2,6.350133568E-2,8.043836057E-2
2.265485266E0,-5.472473055E-2,5.992075056E-2,9.226263314E-2
2.267954383E0,-5.112748966E-2,5.527431145E-2,1.041868255E-1
2.270475013E0,-4.699731991E-2,5.274291709E-2,1.150618270E-1
2.272969926E0,-4.421611875E-2,4.929555953E-2,1.260700524E-1
2.275464921E0,-4.206776246E-2,4.797989875E-2,1.359957904E-1
2.277960609E0,-3.872032836E-2,4.799655452E-2,1.466043293E-1
2.280409664E0,-3.618893400E-2,4.588150606E-2,1.564134806E-1
2.282950354E0,-3.497320041E-2,4.563169926E-2,1.638244689E-1
2.285445309E0,-3.507312387E-2,4.766347632E-2,1.716351360E-1
2.287914628E0,-3.292477131E-2,4.899578914E-2,1.742831171E-1
2.290435950E0,-3.287480772E-2,5.474138632E-2,1.769144237E-1
2.292916216E0,-3.230857477E-2,5.780570209E-2,1.763648540E-1
2.295425249E0,-3.334111720E-2,6.326818466E-2,1.733005345E-1
2.297920325E0,-3.462346643E-2,7.021286339E-2,1.682544053E-1
2.300417884E0,-3.672185913E-2,7.725746185E-2,1.593612134E-1
2.302911211E0,-3.958633170E-2,8.631718904E-2,1.507178396E-1
2.305377926E0,-4.153483734E-2,9.522702545E-2,1.382440627E-1
2.307900672E0,-4.468242824E-2,1.041535214E-1,1.262865663E-1
2.310395301E0,-4.554842785E-2,1.149119437E-1,1.118143201E-1
2.312902543E0,-4.669754952E-2,1.222063527E-1,9.894084930E-2
2.315386227E0,-4.666424170E-2,1.304000765E-1,8.223698288E-2
2.317874468E0,-4.741366580E-2,1.384938657E-1,6.644908339E-2
2.320375525E0,-4.643108696E-2,1.465543658E-1,4.919563606E-2
2.322870724E0,-4.611466080E-2,1.542318165E-1,3.447358310E-2
2.325347612E0,-4.541520029E-2,1.600440294E-1,1.868568175E-2
2.327861040E0,-4.353330657E-2,1.638411134E-1,4.246745724E-3
2.330330237E0,-3.912002221E-2,1.677381247E-1,-1.074176840E-2
2.332850949E0,-3.592247143E-2,1.693868637E-1,-2.504747361E-2
2.335345415E0,-3.110949509E-2,1.710522622E-1,-3.645539656E-2
2.337822058E0,-2.629651502E-2,1.725511104E-1,-5.089433491E-2
2.340336585E0,-2.136695944E-2,1.727343053E-1,-6.188591197E-2
2.342830889E0,-1.672052033E-2,1.710522622E-1,-7.367687672E-2
2.345300696E0,-1.220731251E-2,1.708357483E-1,-8.520137519E-2
2.347821367E0,-6.228560582E-3,1.675549299E-1,-9.499387443E-2
2.350290728E0,-1.315658446E-3,1.658728868E-1,-1.046697944E-1
2.352811764E0,5.362557247E-3,1.668554693E-1,-1.138127819E-1
2.355284827E0,9.609303437E-3,1.643906981E-1,-1.200246885E-1
2.357775835E0,1.493855286E-2,1.644406617E-1,-1.287679970E-1
2.360294064E0,1.906872168E-2,1.641242355E-1,-1.332812011E-1
2.362765581E0,2.308231220E-2,1.648736596E-1,-1.381774545E-1
2.365262814E0,2.829498425E-2,1.661560088E-1,-1.413583457E-1
2.367759193E0,3.124272637E-2,1.674716622E-1,-1.424241960E-1
2.370277177E0,3.580589592E-2,1.694201678E-1,-1.437565088E-1
2.372770748E0,3.902009875E-2,1.699364483E-1,-1.424408406E-1
2.375241086E0,4.238418862E-2,1.735170335E-1,-1.407254934E-1
2.377738074E0,4.656431824E-2,1.764314622E-1,-1.383606344E-1
2.380257239E0,4.859609529E-2,1.789628565E-1,-1.338640898E-1
2.382726193E0,5.117744952E-2,1.835093796E-1,-1.285681427E-1
2.385246944E0,5.319257081E-2,1.849749237E-1,-1.246045157E-1
2.387716183E0,5.244314671E-2,1.894048601E-1,-1.182593778E-1
2.390236813E0,5.232656747E-2,1.910202950E-1,-1.145622134E-1
2.392732012E0,5.302603170E-2,1.937182248E-1,-1.075509191E-1
2.395226844E0,4.862940311E-2,1.952337325E-1,-1.027878970E-1
2.397720578E0,4.651435465E-2,1.970156878E-1,-9.709226340E-2
2.400191118E0,4.078541324E-2,1.969490796E-1,-9.139662981E-2
2.402712073E0,3.437365964E-2,1.966159940E-1,-8.861542493E-2
2.405207557E0,2.794525214E-2,1.948173791E-1,-8.105455339E-2
2.407682492E0,1.965160854E-2,1.926190704E-1,-7.958900928E-2
2.410197180E0,1.269027591E-2,1.896213591E-1,-7.612499595E-2
2.412670529E0,2.231623279E-3,1.846584976E-1,-7.201148570E-2
2.415187009E0,-8.759954013E-3,1.799620986E-1,-6.774808466E-2
2.417639238E0,-1.855245046E-2,1.737834960E-1,-6.136963889E-2
2.420157264E0,-2.969391271E-2,1.672051996E-1,-5.948774889E-2
2.422671953E0,-4.056891054E-2,1.599774063E-1,-5.484130979E-2
2.425126991E0,-5.225995183E-2,1.515338868E-1,-5.096095055E-2
2.427662350E0,-6.126971543E-2,1.440229714E-1,-4.536523670E-2
2.430157712E0,-7.377679646E-2,1.339973211E-1,-4.121841490E-2
2.432626787E0,-8.252009749E-2,1.260700524E-1,-4.026914015E-2
2.435147213E0,-8.966462314E-2,1.178763360E-1,-3.480666131E-2
2.437625485E0,-9.855780751E-2,1.095493883E-1,-3.240849823E-2
2.440137529E0,-1.052859873E-1,1.024215147E-1,-2.774540521E-2
2.442632402E0,-1.082836911E-1,9.431106597E-2,-2.493089624E-2
2.445103797E0,-1.148786321E-1,8.849885315E-2,-2.160011418E-2
2.447595822E0,-1.162775606E-1,8.065485954E-2,-1.786964014E-2
2.450108679E0,-1.180428788E-1,7.734073699E-2,-1.613763347E-2
2.452612505E0,-1.175266057E-1,7.427641749E-2,-1.294008363E-2
2.455108436E0,-1.167605296E-1,6.934686005E-2,-1.134130917E-2
2.457583005E0,-1.155781001E-1,6.641577184E-2,-7.361026015E-3
2.460097612E0,-1.133298203E-1,6.426741928E-2,-5.629019812E-3
2.462578488E0,-1.103820801E-1,6.453388184E-2,-1.398927998E-3
2.465087847E0,-1.051694080E-1,6.410087645E-2,1.998468651E-4
2.467583492E0,-9.914069623E-2,6.526665390E-2,3.497319994E-3
2.470052446E0,-9.326186776E-2,6.614930928E-2,4.829632584E-3
2.472573280E0,-8.949808776E-2,6.693204492E-2,8.926493116E-3
2.475035275E0,-8.375249058E-2,6.758154929E-2,1.237385161E-2
2.477562944E0,-7.784035057E-2,6.967993826E-2,1.765313931E-2
2.480058876E0,-7.356029749E-2,7.007963210E-2,2.361523733E-2
2.482527625E0,-6.979651749E-2,7.139529288E-2,2.971056662E-2
2.485022661E0,-6.485030800E-2,7.179498672E-2,3.897013888E-2
2.487543250E0,-6.136963889E-2,7.126206160E-2,4.388304055E-2
2.490014768E0,-5.897147581E-2,6.901378185E-2,5.329249427E-2
2.492533281E0,-5.497454107E-2,6.633250415E-2,5.912136286E-2
2.495028968E0,-5.485796183E-2,6.316825747E-2,6.919697672E-2
2.497523028E0,-5.355895683E-2,5.798889697E-2,7.848985493E-2
2.499992672E0,-5.292610824E-2,5.174368247E-2,8.645042032E-2
2.502488156E0,-5.364222825E-2,4.576493055E-2,9.229593724E-2
2.505009112E0,-5.340907350E-2,3.993606195E-2,9.932389110E-2
2.507480628E0,-5.412518978E-2,3.315792605E-2,1.055691019E-1
2.509998369E0,-5.352564901E-2,2.423143201E-2,1.120974347E-1
2.512447344E0,-5.385872722E-2,1.623755693E-2,1.146454811E-1
2.514979448E0,-5.379211158E-2,7.577526849E-3,1.177098006E-1
2.517484250E0,-5.279287696E-2,-1.765313908E-3,1.207907721E-1
2.519953000E0,-5.219333619E-2,-9.625957347E-3,1.225394309E-1
2.522474444E0,-5.039471760E-2,-1.818606444E-2,1.220231578E-1
2.524941159E0,-4.966194555E-2,-2.659628540E-2,1.236552447E-1
2.527463172E0,-4.624789208E-2,-3.395731375E-2,1.215568483E-1
2.529959348E0,-4.216768593E-2,-4.066883400E-2,1.236885488E-1
2.532428707E0,-4.075210541E-2,-4.669754952E-2,1.203910783E-1
2.534948809E0,-3.652201220E-2,-5.154383555E-2,1.172268391E-1
2.537400306E0,-3.309131041E-2,-5.597377568E-2,1.160610616E-1
2.539913489E0,-2.817840688E-2,-5.882159248E-2,1.131466329E-1
2.542388506E0,-2.353196777E-2,-6.275191158E-2,1.109150052E-1
2.544903643E0,-2.061753348E-2,-6.478369236E-2,1.077341139E-1
2.547424720E0,-1.741998456E-2,-6.536657363E-2,1.024381667E-1
2.549879879E0,-1.423908863E-2,-6.726512313E-2,1.001898944E-1
2.552388628E0,-1.290677581E-2,-6.809781492E-2,9.489394724E-2
2.554909461E0,-1.102488488E-2,-6.638246775E-2,9.289547801E-2
2.557382646E0,-1.157446392E-2,-6.706527621E-2,8.999770135E-2
2.559899370E0,-1.025880501E-2,-6.841424108E-2,8.615064621E-2
2.562369545E0,-9.575995617E-3,-6.738170236E-2,8.190390468E-2
2.564887326E0,-1.159111783E-2,-6.803119928E-2,7.938916236E-2
2.567384925E0,-1.040869020E-2,-6.846420467E-2,7.582522929E-2
2.569880205E0,-1.267362200E-2,-6.793127954E-2,7.157848030E-2
2.572374508E0,-1.240715943E-2,-6.741500646E-2,6.799789518E-2
2.574857948E0,-1.333977748E-2,-6.541653723E-2,6.256871670E-2
2.577340288E0,-1.277354546E-2,-6.171937287E-2,5.567400530E-2
2.579859900E0,-1.022549719E-2,-5.922128633E-2,5.194352940E-2
2.582337684E0,-7.794027682E-3,-5.619027466E-2,4.716385901E-2
2.584849240E0,-4.296707455E-3,-5.250976235E-2,3.867036849E-2
2.587324093E0,-2.664624772E-4,-4.736370593E-2,3.229192272E-2
2.589814246E0,5.645673722E-3,-4.354996234E-2,2.817840688E-2
2.592335202E0,1.184092648E-2,-3.642208874E-2,2.126703598E-2
2.594839353E0,1.881891303E-2,-3.142591938E-2,1.568797790E-2
2.597325111E0,2.608001418E-2,-2.456451021E-2,1.009226590E-2
2.599798540E0,3.320788592E-2,-1.798621751E-2,3.847052110E-3
2.602292193E0,4.048564285E-2,-1.004230417E-2,3.830398200E-4
2.604810299E0,4.869601876E-2,-3.847052110E-3,-2.548047341E-3
2.607279701E0,5.887155235E-2,8.660030435E-4,-5.612365901E-3
2.609774818E0,6.508345902E-2,7.993874140E-3,-9.609303437E-3
2.612282630E0,7.354364544E-2,1.352297049E-2,-1.294008363E-2
2.614764727E0,8.105455339E-2,1.880225912E-2,-1.388935652E-2
2.617259071E0,8.711657673E-2,2.368185297E-2,-1.668721251E-2
2.619780595E0,9.382809699E-2,2.829498425E-2,-1.563801616E-2
2.622260129E0,9.774176776E-2,3.174234182E-2,-1.565467007E-2
2.624744504E0,1.032209024E-1,3.275823221E-2,-1.712021418E-2
2.627265866E0,1.079339609E-1,3.685509041E-2,-1.713686809E-2
2.629760495E0,1.095327288E-1,3.683843836E-2,-1.620424911E-2
2.632255531E0,1.092496142E-1,3.603905067E-2,-1.713686809E-2
2.634743039E0,1.091163829E-1,3.457350656E-2,-1.672052033E-2
2.637245887E0,1.108483896E-1,3.417381272E-2,-1.433901209E-2
2.639740882E0,1.094994247E-1,3.259169310E-2,-1.300669927E-2
2.642214963E0,1.073510721E-1,3.060987778E-2,-1.220731251E-2
2.644704668E0,1.033208221E-1,2.904441021E-2,-1.127469353E-2
2.647191200E0,9.995673597E-2,2.453120239E-2,-9.009762667E-3
2.649720456E0,9.472741187E-2,2.218300104E-2,-6.495022681E-3
2.652215817E0,8.976455033E-2,1.996803097E-2,-5.279287696E-3
2.654685177E0,8.185394108E-2,1.628751867E-2,-4.346669186E-3
2.657180376E0,7.595846057E-2,1.433901209E-2,-2.214969369E-3
2.659663653E0,6.779804826E-2,1.202411950E-2,-6.161945057E-4
2.662195594E0,6.045367569E-2,1.167438738E-2,9.659265052E-4
2.664691403E0,5.174368247E-2,8.676684462E-3,9.825803572E-4
2.667185666E0,4.170137644E-2,5.828866735E-3,2.981049009E-3
2.669655718E0,3.234188259E-2,4.713055212E-3,4.713055212E-3
2.672150388E0,2.336542867E-2,2.514739521E-3,2.731240354E-3
2.674670855E0,1.305666100E-2,3.330780892E-4,4.196783993E-3
2.677166500E0,5.295941606E-3,-2.281585010E-3,4.346669186E-3
2.679636594E0,-5.029479042E-3,-6.861408707E-3,4.096860532E-3
2.682130694E0,-1.507178415E-2,-9.859112091E-3,4.096860532E-3
2.684636024E0,-2.366519906E-2,-1.472205203E-2,5.179364234E-3
2.687146115E0,-3.184226528E-2,-1.851914264E-2,5.062786862E-3
2.689641884E0,-3.898679093E-2,-2.434800938E-2,4.679747391E-3
2.692135862E0,-4.598142952E-2,-3.109284118E-2,3.780436469E-3
2.694605832E0,-5.244314671E-2,-3.610566631E-2,4.196783993E-3
2.697101031E0,-5.835528299E-2,-4.166806862E-2,4.479900468E-3
2.699621335E0,-6.133633107E-2,-4.578158259E-2,4.230091814E-3
2.702116859E0,-6.684877723E-2,-5.014490709E-2,3.847052110E-3
2.704611162E0,-6.729842722E-2,-5.547415838E-2,3.597243456E-3
2.707081296E0,-6.824769825E-2,-5.747262388E-2,4.529862199E-3
2.709576087E0,-6.704862416E-2,-5.787231773E-2,4.663093481E-3
2.712096636E0,-6.480034441E-2,-6.015390530E-2,6.661561783E-3
2.714592038E0,-6.171937287E-2,-5.925459415E-2,5.862174556E-3
2.717086422E0,-5.637346953E-2,-5.848851427E-2,5.862174556E-3
2.719573931E0,-5.112748966E-2,-5.545750260E-2,7.960566320E-3
2.722051104E0,-4.388304055E-2,-5.164375901E-2,9.009762667E-3
2.724571653E0,-3.688839823E-2,-4.569831491E-2,9.392802604E-3
2.727067542E0,-2.841156162E-2,-3.988610208E-2,9.892419912E-3
2.729546872E0,-2.126703598E-2,-3.152584285E-2,1.145788655E-2
2.732057615E0,-1.292342972E-2,-2.424808592E-2,1.222396642E-2
2.734510129E0,-2.814509906E-3,-1.458882075E-2,1.219065860E-2
2.737046831E0,5.012825131E-3,-4.646439571E-3,1.282350626E-2
2.739517331E0,1.082503796E-2,3.314126981E-3,1.372281741E-2
2.742014564E0,1.718682982E-2,1.234054379E-2,1.502182242E-2
2.744539873E0,2.419812419E-2,2.068414912E-2,1.422243472E-2
2.747006426E0,2.812844515E-2,2.651301585E-2,1.207408123E-2
2.749522173E0,3.395731375E-2,3.633882105E-2,1.217400469E-2
2.752017779E0,3.600574285E-2,4.300038144E-2,1.110815443E-2
2.754512204E0,3.510643169E-2,4.699731991E-2,8.709992282E-3
2.756968951E0,3.555608541E-2,5.245979875E-2,7.760719862E-3
2.759476804E0,3.262500092E-2,5.474138632E-2,5.096094683E-3
2.761997149E0,3.050995432E-2,5.740600824E-2,1.915199100E-3
2.764492917E0,2.649636194E-2,5.757254735E-2,-6.661561929E-5
2.766954098E0,2.021783963E-2,5.788897350E-2,-8.660030435E-4
2.769451576E0,1.603771001E-2,5.362557247E-2,-5.745597184E-3
2.771951902E0,8.943147026E-3,5.314261094E-2,-7.344372105E-3
2.774472450E0,1.565467101E-3,4.877928644E-2,-1.353962440E-2
2.776968096E0,-4.896248225E-3,4.454919696E-2,-1.418912690E-2
2.779440915E0,-1.000899635E-2,4.016921669E-2,-1.948506944E-2
2.781958086E0,-1.700363681E-2,3.620558977E-2,-2.224961668E-2
2.784426999E0,-2.145022899E-2,3.049330041E-2,-2.646305412E-2
2.786947588E0,-2.578024380E-2,2.503081970E-2,-3.174234182E-2
2.789443357E0,-2.971056662E-2,1.985145546E-2,-3.490658477E-2
2.791919227E0,-3.255838528E-2,1.492189895E-2,-3.847052157E-2
2.794433265E0,-3.314127028E-2,9.292879142E-3,-4.308365285E-2
2.796902097E0,-3.239184618E-2,4.346669186E-3,-4.571496695E-2
2.799422848E0,-3.404058143E-2,-7.161179092E-4,-4.874597862E-2
2.801918373E0,-3.287480772E-2,-3.680513008E-3,-5.257637799E-2
2.804406247E0,-2.862806246E-2,-7.993874140E-3,-5.402526632E-2
2.806908322E0,-2.558039874E-2,-1.095826924E-2,-5.560738966E-2
2.809377357E0,-2.239950188E-2,-1.327316184E-2,-5.890486017E-2
2.811897987E0,-1.720348373E-2,-1.503847633E-2,-5.930455402E-2
2.814393511E0,-1.280685235E-2,-1.628751867E-2,-6.035375223E-2
2.816843381E0,-5.612365901E-3,-1.675382815E-2,-6.406757236E-2
2.819383461E0,2.148353728E-3,-1.655398123E-2,-6.406757236E-2
2.821854042E0,6.278522313E-3,-1.645405777E-2,-6.341806799E-2
2.824372759E0,1.457216684E-2,-1.503847633E-2,-6.554976851E-2
2.826868609E0,2.273258008E-2,-1.403924171E-2,-6.450057030E-2
2.829340574E0,2.729574963E-2,-1.287346799E-2,-6.450057030E-2
2.831858395E0,3.585585579E-2,-1.054192148E-2,-6.476703286E-2
2.834318235E0,4.308365285E-2,-9.675919078E-3,-6.716519594E-2
2.836848427E0,4.738035798E-2,-7.027947810E-3,-6.465046108E-2
2.839343950E0,5.380876735E-2,-4.146822263E-3,-6.691539288E-2
2.841812985E0,6.063686684E-2,-3.397396533E-3,-6.533326954E-2
2.844352943E0,6.573296338E-2,-5.162710440E-4,-6.573296338E-2
2.846825273E0,7.014624774E-2,-1.498851489E-4,-6.574961543E-2
2.849323239E0,7.564203441E-2,2.614662983E-3,-6.521669030E-2
2.851803952E0,7.885623723E-2,3.663859097E-3,-6.483364850E-2
2.854313636E0,8.140428364E-2,4.313361365E-3,-6.336810440E-2
2.856809201E0,8.595079929E-2,3.747128649E-3,-6.258537620E-2
2.859286008E0,8.690007776E-2,4.812978674E-3,-6.060355902E-2
2.861778074E0,8.758288622E-2,6.145291030E-3,-5.795558915E-2
2.864294431E0,8.729977161E-2,3.763782559E-3,-5.449157581E-2
2.866764931E0,8.661695570E-2,2.448124113E-3,-5.237653106E-2
2.869283730E0,8.701664954E-2,8.493491332E-4,-4.892917350E-2
2.871752967E0,8.498487622E-2,-2.031776356E-3,-4.295042157E-2
2.874233518E0,8.138763160E-2,-2.931087278E-3,-3.792094067E-2
2.876769488E0,7.627488673E-2,-7.144525182E-3,-3.354096413E-2
2.879266436E0,6.984647363E-2,-1.079173014E-2,-2.636313066E-2
2.881759722E0,6.408422440E-2,-1.367285568E-2,-2.318223566E-2
2.884228391E0,5.644008517E-2,-1.758652367E-2,-1.720348373E-2
2.886730262E0,5.121075734E-2,-2.071745694E-2,-9.909073822E-3
2.889218666E0,4.381642491E-2,-2.611332200E-2,-6.311830133E-3
2.891715492E0,3.444027528E-2,-2.976052836E-2,3.164241789E-4
2.894214597E0,2.521401271E-2,-3.232523054E-2,5.895482376E-3
2.896703692E0,1.718682982E-2,-3.517304733E-2,1.054192148E-2
2.899199257E0,7.943912409E-3,-3.815409541E-2,1.545482408E-2
2.901693764E0,2.198315458E-3,-3.863706067E-2,1.810279489E-2
2.904188921E0,-6.228560582E-3,-4.028579593E-2,2.116711251E-2
2.906683672E0,-1.437231991E-2,-4.033575580E-2,2.499751188E-2
2.909180255E0,-2.065084130E-2,-4.161810875E-2,2.846152335E-2
2.911673540E0,-2.692936361E-2,-3.996936977E-2,2.752890438E-2
2.914194862E0,-3.334111720E-2,-4.070214182E-2,2.991041355E-2
2.916689206E0,-3.855378926E-2,-4.053560272E-2,2.977718227E-2
2.919184852E0,-4.376646131E-2,-4.036906362E-2,2.872798592E-2
2.921679685E0,-5.029479414E-2,-4.003598541E-2,3.070980124E-2
2.924176104E0,-5.149387196E-2,-3.948640823E-2,3.084303252E-2
2.926644488E0,-5.590716004E-2,-4.065218195E-2,3.097626381E-2
2.929165240E0,-5.619027466E-2,-4.158480093E-2,3.057656996E-2
2.931633909E0,-5.792228132E-2,-4.170137644E-2,3.257503733E-2
2.934154701E0,-5.955436453E-2,-4.394965619E-2,3.230857477E-2
2.936650143E0,-6.170271710E-2,-4.553177580E-2,3.364088759E-2
2.939144691E0,-6.025382876E-2,-4.862940311E-2,3.232523054E-2
2.941614133E0,-5.960432440E-2,-5.154383555E-2,3.577258810E-2
2.944133745E0,-5.937116966E-2,-5.435834453E-2,3.459015861E-2
2.946629880E0,-5.818874389E-2,-5.717285350E-2,3.474004567E-2
2.949124672E0,-5.447492376E-2,-6.093663722E-2,3.513973951E-2
2.951620562E0,-5.302603170E-2,-6.228560582E-2,3.567266464E-2
2.954094113E0,-4.969525337E-2,-6.416749209E-2,3.582254797E-2
2.956609861E0,-4.729709029E-2,-6.566634774E-2,3.528962284E-2
2.959105833E0,-4.398296401E-2,-6.834762543E-2,3.702162951E-2
2.961555620E0,-4.198449478E-2,-6.796458364E-2,3.542285413E-2
2.964070025E0,-3.862040490E-2,-6.599942595E-2,3.648870438E-2
2.966590086E0,-3.513973951E-2,-6.548315287E-2,3.673851490E-2
2.969085324E0,-3.124272637E-2,-6.245214492E-2,3.700497746E-2
2.971580564E0,-2.934418060E-2,-5.965428799E-2,3.618893400E-2
2.974094684E0,-2.746228874E-2,-5.713954568E-2,3.870367631E-2
2.976549395E0,-2.594678290E-2,-5.300937966E-2,3.935317695E-2
2.979065915E0,-2.283250354E-2,-4.836294055E-2,3.973621875E-2
2.981540037E0,-2.160011418E-2,-4.476569593E-2,4.105187580E-2
2.984054400E0,-2.035107091E-2,-3.888686746E-2,4.421611875E-2
2.986550616E0,-2.071745694E-2,-3.500650823E-2,4.511542991E-2
2.989045693E0,-1.828598790E-2,-3.260834515E-2,4.842955619E-2
2.991525470E0,-1.743663847E-2,-2.727909572E-2,5.106087402E-2
2.994010129E0,-1.685375161E-2,-2.246611752E-2,5.315926298E-2
2.996505735E0,-1.428905036E-2,-2.046764828E-2,5.647339299E-2
2.999025633E0,-1.185758039E-2,-1.727009937E-2,5.937116966E-2
3.001521197E0,-8.360260166E-3,-1.502182242E-2,6.266864389E-2
3.004016314E0,-6.728177425E-3,-1.235719770E-2,6.518338621E-2
3.006511269E0,-2.581355162E-3,-9.992342442E-3,6.438399851E-2
3.009005653E0,1.165773370E-3,-9.209609590E-3,6.543318927E-2
3.011501259E0,7.077909540E-3,-6.728177425E-3,6.423410773E-2
3.013995847E0,1.295673754E-2,-4.779670853E-3,6.316825747E-2
3.016486366E0,2.045099437E-2,-2.981049009E-3,6.196917966E-2
3.018985959E0,2.699597925E-2,-4.379977006E-3,5.825535953E-2
3.021481524E0,3.474004567E-2,-3.513973905E-3,5.534092709E-2
3.023975909E0,4.288380593E-2,-2.531393431E-3,5.017821491E-2
3.026445920E0,5.022817850E-2,-2.747894265E-3,4.513208196E-2
3.028940590E0,5.850516632E-2,-1.915199100E-3,3.772109374E-2
3.031436114E0,6.651569903E-2,-1.998468535E-3,3.267496079E-2
3.033932289E0,7.504249364E-2,-3.280819161E-3,2.619659156E-2
3.036425982E0,8.238686621E-2,-3.630551277E-3,2.181661502E-2
3.038946734E0,9.159647673E-2,-3.597243456E-3,1.453885902E-2
3.041416460E0,9.640945494E-2,-2.997702919E-3,8.959800936E-3
3.043910886E0,1.037371755E-1,-3.480666084E-3,2.348200651E-3
3.046430621E0,1.090997308E-1,-1.532159280E-3,-2.964395098E-3
3.048904253E0,1.138960570E-1,-1.065849909E-3,-1.064184494E-2
3.051421384E0,1.189588457E-1,-1.265696716E-3,-1.555474754E-2
3.053916949E0,1.228392050E-1,-6.495022681E-4,-2.045099437E-2
3.056391071E0,1.241881698E-1,7.993874606E-4,-2.376512252E-2
3.058906451E0,1.252373606E-1,6.328483578E-4,-2.841156162E-2
3.061402219E0,1.253705919E-1,1.015888178E-3,-3.132599592E-2
3.063897093E0,1.271025985E-1,1.515505370E-3,-3.647205234E-2
3.066389686E0,1.236552447E-1,3.397396533E-3,-3.780436516E-2
3.068885618E0,1.240549386E-1,4.862940405E-3,-3.847052157E-2
3.071382200E0,1.207241565E-1,5.945444107E-3,-4.071879759E-2
3.073877357E0,1.177930683E-1,5.562404171E-3,-4.138495401E-2
3.076371905E0,1.140459403E-1,6.128637120E-3,-4.403292388E-2
3.078866819E0,1.103154644E-1,6.828100886E-3,-4.151818529E-2
3.081336301E0,1.059021801E-1,6.861408707E-3,-4.336676747E-2
3.083850502E0,1.015055478E-1,7.161179092E-3,-4.231757298E-2
3.086351804E0,9.562671930E-2,7.627488580E-3,-3.926990926E-2
3.088847451E0,9.187959135E-2,5.912136286E-3,-3.925325349E-2
3.091341713E0,8.438533545E-2,5.179364234E-3,-3.753790259E-2
3.093837970E0,7.983881980E-2,4.296707455E-3,-3.540620208E-2
3.096308999E0,7.276090980E-2,4.629785661E-3,-3.382408246E-2
3.098827227E0,6.848085672E-2,3.197549842E-3,-3.355761990E-2
3.101322263E0,6.365122646E-2,8.326952229E-4,-3.129268810E-2
3.103817177E0,5.857178196E-2,-8.493491332E-4,-2.837825380E-2
3.106312660E0,5.240983889E-2,-1.465543639E-3,-2.822836861E-2
3.108807330E0,4.801320657E-2,-1.032542088E-3,-2.849483117E-2
3.111277789E0,4.278388247E-2,-2.181661548E-3,-2.704594098E-2
3.113771848E0,3.931986913E-2,-2.814509906E-3,-2.624655329E-2
3.116259682E0,3.488992900E-2,-3.980283160E-3,-2.636313066E-2
3.118765460E0,3.197549656E-2,-2.231623279E-3,-2.544716746E-2
3.121256955E0,2.902775630E-2,-3.280819161E-3,-2.702928707E-2
3.123752032E0,2.609666809E-2,-2.065084176E-3,-2.954402752E-2
3.126272866E0,2.476435713E-2,-1.648736536E-3,-2.902775630E-2
3.128767576E0,2.316558175E-2,-9.659265052E-4,-2.969391271E-2
3.131263425E0,2.105053514E-2,2.231623279E-3,-3.327450156E-2
3.133735675E0,2.106718905E-2,5.162710324E-3,-3.447358310E-2
3.136252521E0,1.973487809E-2,6.228560582E-3,-3.818740323E-2
3.138747922E0,2.001799271E-2,9.276225232E-3,-4.123506695E-2
3.141243446E0,1.856910437E-2,1.169104129E-2,-4.496554285E-2
3.143738401E0,1.818606444E-2,1.380608696E-2,-4.734705016E-2
3.146207395E0,1.860241219E-2,1.620424911E-2,-4.987844452E-2
3.148727659E0,1.821937226E-2,1.900210604E-2,-5.094429478E-2
3.151222695E0,2.036772482E-2,1.950172335E-2,-5.385872722E-2
3.153717933E0,2.090064995E-2,2.043434046E-2,-5.690639094E-2
3.156218503E0,2.236619405E-2,2.093395777E-2,-5.968759581E-2
3.158708046E0,2.343204431E-2,2.025114745E-2,-6.062021479E-2
3.161177610E0,2.328215912E-2,1.880225912E-2,-5.837193504E-2
3.163672645E0,2.421477810E-2,1.825268008E-2,-5.797224119E-2
3.166193072E0,2.647970803E-2,1.690371335E-2,-5.782235786E-2
3.168688515E0,2.781202085E-2,1.517170761E-2,-5.570731312E-2
3.171183632E0,2.951071970E-2,1.184092648E-2,-5.132733285E-2
3.173678627E0,3.270826861E-2,9.825804271E-3,-4.839624837E-2
3.176173378E0,3.404058143E-2,7.694104221E-3,-4.494889081E-2
3.178668536E0,3.587251157E-2,3.563935636E-3,-4.056891054E-2
3.181163612E0,3.893683106E-2,1.415581908E-3,-3.618893400E-2
3.183632932E0,4.025248811E-2,-1.115811639E-3,-3.327450156E-2
3.186153724E0,4.238418862E-2,-3.913667519E-3,-2.742898092E-2
3.188648598E0,4.478235170E-2,-5.379211158E-3,-2.306565829E-2
3.191143064E0,4.584819824E-2,-5.245979875E-3,-1.975153200E-2
3.193639077E0,4.944544286E-2,-6.578292232E-3,-1.352297049E-2
3.196133949E0,5.186025798E-2,-6.861408707E-3,-1.219065860E-2
3.198602822E0,5.332580209E-2,-7.261102553E-3,-8.476837538E-3
3.201098061E0,5.240983889E-2,-6.961332168E-3,-2.664624713E-3
3.203618528E0,5.440830812E-2,-7.361026015E-3,1.315658446E-3
3.206114133E0,5.695635453E-2,-5.895482376E-3,5.029479042E-3
3.208608844E0,5.805551261E-2,-4.030244891E-3,1.004230417E-2
3.211103228E0,5.887155235E-2,-2.398162382E-3,1.613763347E-2
3.213599159E0,5.915467069E-2,-9.326186846E-4,1.758652367E-2
3.216088540E0,6.078675389E-2,9.492725949E-4,2.248277143E-2
3.218588783E0,6.067017466E-2,1.765313908E-3,2.684609406E-2
3.221084348E0,6.135298684E-2,2.831163816E-3,3.055991605E-2
3.223565346E0,6.150287017E-2,4.846286494E-3,3.279154003E-2
3.226073932E0,6.296841055E-2,4.446592648E-3,3.690505400E-2
3.228543332E0,6.111983210E-2,6.478368770E-3,3.862040490E-2
3.231038572E0,6.206910312E-2,7.810681593E-3,4.086868092E-2
3.233559853E0,6.261868030E-2,8.893185295E-3,4.404957965E-2
3.236054848E0,6.315160543E-2,8.210374974E-3,4.391634837E-2
3.238549518E0,6.395099312E-2,7.161179092E-3,4.683078080E-2
3.241044554E0,6.528330594E-2,8.210374974E-3,4.696401209E-2
3.243539589E0,6.566634774E-2,4.879594315E-3,4.696401209E-2
3.246034625E0,6.673219800E-2,4.596477840E-3,4.736370593E-2
3.248510537E0,6.724847108E-2,3.913667519E-3,4.564835131E-2
3.250998899E0,6.871400774E-2,3.763782559E-3,4.484896734E-2
3.253513385E0,7.109551877E-2,9.492725949E-4,4.486561939E-2
3.256014321E0,7.229460031E-2,1.332312386E-4,4.353330657E-2
3.258510171E0,7.427641749E-2,-2.414816292E-3,4.288380593E-2
3.260979246E0,7.399329543E-2,-3.880359931E-3,4.236753285E-2
3.263499672E0,7.425975800E-2,-4.296707455E-3,4.103522003E-2
3.265968748E0,7.612499595E-2,-4.713055212E-3,3.998602554E-2
3.268465492E0,7.519237697E-2,-4.846286494E-3,3.931986913E-2
3.270959715E0,7.464279979E-2,-6.445060950E-3,3.747128695E-2
3.273453937E0,7.395999134E-2,-7.244448643E-3,3.613897413E-2
3.275948972E0,7.236121595E-2,-7.893950678E-3,3.720482439E-2
3.278444090E0,7.022951543E-2,-6.811446976E-3,3.680513054E-2
3.280939004E0,6.648238748E-2,-6.128637120E-3,3.455685079E-2
3.283434242E0,6.368453056E-2,-6.245214492E-3,3.362423554E-2
3.285929482E0,5.807216465E-2,-6.461714860E-3,3.324119374E-2
3.288424314E0,5.419180542E-2,-5.895482376E-3,3.362423554E-2
3.290932046E0,5.032810196E-2,-4.546516109E-3,3.137595579E-2
3.293414752E0,4.311696067E-2,-4.746363033E-3,3.070980124E-2
3.295909747E0,3.615562618E-2,-5.096094683E-3,3.006029874E-2
3.298404621E0,3.215869144E-2,-4.663093481E-3,2.992706746E-2
3.300906125E0,2.403158508E-2,-2.614662983E-3,2.912767977E-2
3.303393797E0,1.788629405E-2,-1.748659997E-3,2.737901919E-2
3.305890176E0,1.174100302E-2,-1.848583459E-3,2.606336027E-2
3.308384967E0,3.863706021E-3,-9.825803572E-4,2.368185297E-2
3.310880084E0,-3.897013841E-3,-7.993874606E-4,2.181661502E-2
3.313374510E0,-9.476072155E-3,1.632082625E-3,1.970157027E-2
3.315869708E0,-1.577124745E-2,7.494257297E-4,1.796956360E-2
3.318365029E0,-2.136695944E-2,1.981814625E-3,1.705359854E-2
3.320859821E0,-2.458116412E-2,2.531393431E-3,1.214069687E-2
3.323355101E0,-2.832829207E-2,2.148353728E-3,9.625957347E-3
3.325851072E0,-3.045999259E-2,3.080972470E-3,6.178598851E-3
3.328333413E0,-3.449023515E-2,2.031776356E-3,1.815275638E-3
3.330828489E0,-3.540620208E-2,3.897013841E-3,8.826569538E-4
3.333323443E0,-3.768778592E-2,2.964395098E-3,-3.480666084E-3
3.335818601E0,-3.783767298E-2,2.165007638E-3,-6.261868402E-3
3.338313800E0,-3.650536016E-2,2.548047341E-3,-7.460949477E-3
3.340808876E0,-3.479000553E-2,5.162710440E-4,-1.049195975E-2
3.343303749E0,-3.252507746E-2,-4.996171629E-5,-1.433901209E-2
3.345798582E0,-2.932752669E-2,-2.165007609E-4,-1.805283315E-2
3.348298093E0,-2.731240354E-2,-1.165773356E-4,-1.963495463E-2
3.350789142E0,-2.291577309E-2,3.663859097E-4,-2.414816245E-2
3.353284137E0,-2.090064995E-2,8.826569538E-4,-2.639643848E-2
3.355778766E0,-1.503847633E-2,6.828100886E-4,-3.011026047E-2
3.358274005E0,-1.115811616E-2,1.315658446E-3,-3.249176964E-2
3.360768756E0,-6.744831335E-3,2.598009072E-3,-3.673851490E-2
3.363263996E0,-1.132465550E-3,2.664624713E-3,-3.925325349E-2
3.365760496E0,1.265696716E-3,3.447358264E-3,-4.098526016E-2
3.368254921E0,5.678981543E-3,4.196783993E-3,-4.363323003E-2
3.370769936E0,1.062519103E-2,4.679747391E-3,-4.601473734E-2
3.373256915E0,1.304000709E-2,6.128637120E-3,-4.681412503E-2
3.375748533E0,1.732006110E-2,6.095329300E-3,-4.894582555E-2
3.378254515E0,1.878560521E-2,5.545750260E-3,-4.999502376E-2
3.380750567E0,1.985145546E-2,5.928790197E-3,-4.972856119E-2
3.383244830E0,2.091730386E-2,5.645673722E-3,-5.051129311E-2
3.385740436E0,2.466443367E-2,5.878828466E-3,-4.877928644E-2
3.388217243E0,2.504747361E-2,4.263399635E-3,-5.022817850E-2
3.390711505E0,2.731240354E-2,3.197549842E-3,-4.704727978E-2
3.393225014E0,2.971056662E-2,2.115045907E-3,-4.638112336E-2
3.395736286E0,3.105953336E-2,2.381508471E-3,-4.399961606E-2
3.398231402E0,3.332446516E-2,1.299004536E-3,-4.201780260E-2
3.400726967E0,3.680513054E-2,2.214969369E-3,-3.936983272E-2
3.403221963E0,4.133499041E-2,1.665390446E-3,-3.685509041E-2
3.405716591E0,4.454919696E-2,2.165007638E-3,-3.552277759E-2
3.408226601E0,4.789663106E-2,2.281585010E-3,-3.434035182E-2
3.410706582E0,5.071114004E-2,3.597243456E-3,-3.222530708E-2
3.413202146E0,5.339241773E-2,2.931087278E-3,-2.917764150E-2
3.415696409E0,5.489126965E-2,5.345903337E-3,-2.334877476E-2
3.418192096E0,5.662327632E-2,4.396630917E-3,-2.136695944E-2
3.420657956E0,5.662327632E-2,5.079440773E-3,-1.687040552E-2
3.423181720E0,5.917132273E-2,5.079440773E-3,-1.382274088E-2
3.425677529E0,5.584054440E-2,5.262633786E-3,-7.727412041E-3
3.428172280E0,5.369218811E-2,4.363323096E-3,-3.080972470E-3
3.430667397E0,4.984513670E-2,5.096094683E-3,3.930321429E-3
3.433161782E0,4.716385901E-2,3.397396533E-3,1.015888155E-2
3.435657347E0,4.354996234E-2,2.781202085E-3,1.347300876E-2
3.438152545E0,3.847052157E-2,1.665390446E-4,1.851914264E-2
3.440621743E0,3.284149989E-2,-8.493491332E-4,2.183326893E-2
3.443141681E0,2.829498425E-2,-2.264931099E-3,2.303235047E-2
3.445637571E0,1.975153200E-2,-1.781967818E-3,2.581355162E-2
3.448115110E0,1.532159280E-2,-3.763782559E-3,2.489758842E-2
3.450611123E0,8.243682794E-3,-4.912902135E-3,2.463112585E-2
3.453122190E0,9.992342675E-4,-6.461714860E-3,2.080072649E-2
3.455617714E0,-5.812212825E-3,-6.544984411E-3,1.895214431E-2
3.458112873E0,-1.089165360E-2,-5.862174556E-3,1.497186068E-2
3.460607868E0,-2.011791617E-2,-6.878062617E-3,9.542687796E-3
3.463102618E0,-2.612997591E-2,-5.912136286E-3,6.095329300E-3
3.465609821E0,-3.189222887E-2,-6.411753129E-3,7.993874606E-4
3.468091836E0,-3.845386580E-2,-7.194486912E-3,-5.412518978E-3
3.470587766E0,-4.526531324E-2,-7.677450310E-3,-7.927258499E-3
3.473082151E0,-4.941213503E-2,-6.461714860E-3,-1.230723597E-2
3.475576984E0,-5.795558915E-2,-5.329249427E-3,-1.428905036E-2
3.478047076E0,-6.381776184E-2,-5.029479042E-3,-1.508843806E-2
3.480562864E0,-7.157848030E-2,-5.495788530E-3,-1.707025245E-2
3.483063027E0,-7.730742544E-2,-4.246745724E-3,-1.575459354E-2
3.485558347E0,-8.438533545E-2,-2.864471637E-3,-1.615428738E-2
3.488053139E0,-9.079708904E-2,-3.197549842E-3,-1.308996882E-2
3.490547646E0,-9.787499905E-2,-3.264165251E-3,-1.110815443E-2
3.493042642E0,-1.033707857E-1,-5.345903337E-3,-9.376148693E-3
3.495537718E0,-1.097658873E-1,-4.213437904E-3,-6.328484043E-3
3.498032713E0,-1.144456342E-1,-6.028713658E-3,-2.098391997E-3
3.500502318E0,-1.178097203E-1,-7.744065952E-3,-8.993108640E-4
3.503007281E0,-1.222230047E-1,-9.942381643E-3,4.679747391E-3
3.505517861E0,-1.262366027E-1,-1.164107956E-2,6.544984411E-3
3.508013385E0,-1.269194037E-1,-1.323985402E-2,8.926493116E-3
3.510522092E0,-1.265363693E-1,-1.548813190E-2,1.132465526E-2
3.513003497E0,-1.266862601E-1,-1.735336892E-2,1.265696809E-2
3.515475991E0,-1.225560829E-1,-1.871898957E-2,1.530493889E-2
3.517967771E0,-1.213736609E-1,-2.125038207E-2,1.637078822E-2
3.520488523E0,-1.169770285E-1,-2.288246527E-2,1.796956360E-2
3.522983885E0,-1.106818542E-1,-2.253273316E-2,1.770310104E-2
3.525478636E0,-1.069513783E-1,-2.309896611E-2,1.756986976E-2
3.527973224E0,-9.745865315E-2,-2.224961668E-2,1.690371335E-2
3.530468748E0,-9.024751186E-2,-2.176665328E-2,1.741998456E-2
3.532937865E0,-8.315294981E-2,-1.995137706E-2,1.702029072E-2
3.535458291E0,-7.217802107E-2,-1.843587309E-2,1.662059687E-2
3.537953856E0,-6.455053389E-2,-1.690371335E-2,1.448889729E-2
3.540423216E0,-5.439165235E-2,-1.498851459E-2,1.395597216E-2
3.542917926E0,-4.541520029E-2,-1.239050552E-2,1.313993055E-2
3.545426105E0,-3.472338989E-2,-1.155781001E-2,9.692572989E-3
3.547908405E0,-2.561370470E-2,-8.693338372E-3,7.960566320E-3
3.550428505E0,-1.637078822E-2,-5.445826799E-3,6.478368770E-3
3.552923419E0,-7.810681593E-3,-3.913667519E-3,2.764548175E-3
3.555419147E0,3.830398200E-3,-1.232389011E-3,-6.828100886E-4
3.557913532E0,1.144123264E-2,1.665390446E-4,-4.396630917E-3
3.560405231E0,2.053426392E-2,1.948506921E-3,-8.243682794E-3
3.562886310E0,2.534724399E-2,2.697932534E-3,-1.064184494E-2
3.565373371E0,3.097626381E-2,4.513208289E-3,-1.515505370E-2
3.567897703E0,3.698832169E-2,6.045367569E-3,-1.820271835E-2
3.570388629E0,4.206776246E-2,5.196018144E-3,-2.138361335E-2
3.572884398E0,4.513208196E-2,6.878062617E-3,-2.694601752E-2
3.575378619E0,4.661427811E-2,7.660796400E-3,-2.959398925E-2
3.577873574E0,5.007829145E-2,6.961332168E-3,-3.132599592E-2
3.580369343E0,5.287614837E-2,6.261868402E-3,-3.370750323E-2
3.582820636E0,4.981182888E-2,6.811446976E-3,-3.528962284E-2
3.585358763E0,5.139394850E-2,5.728943273E-3,-3.515639156E-2
3.587854206E0,4.886255786E-2,5.612365901E-3,-3.622224182E-2
3.590349608E0,4.857943952E-2,3.347434802E-3,-3.647205234E-2
3.592844684E0,4.534858465E-2,1.781967818E-3,-3.500650823E-2
3.595339679E0,4.148487747E-2,1.415581908E-3,-3.447358310E-2
3.597808633E0,3.958633170E-2,-5.828866852E-4,-3.447358310E-2
3.600304116E0,3.637212887E-2,-2.414816292E-3,-3.287480772E-2
3.602824258E0,3.314127028E-2,-5.329249427E-3,-3.314127028E-2
3.605297321E0,2.951071970E-2,-8.093797602E-3,-3.114280291E-2
3.607814329E0,2.563035861E-2,-9.925727732E-3,-2.954402752E-2
3.610283771E0,2.160011418E-2,-1.149119437E-2,-3.032676131E-2
3.612783242E0,1.810279489E-2,-1.452220511E-2,-2.886121720E-2
3.615274046E0,1.473870594E-2,-1.690371335E-2,-2.872798592E-2
3.617769204E0,1.179096475E-2,-1.888552867E-2,-2.977718227E-2
3.620289793E0,7.760719862E-3,-2.031776309E-2,-3.002699092E-2
3.622785196E0,5.079440773E-3,-2.269927226E-2,-2.936083451E-2
3.625279905E0,2.115045907E-3,-2.468108758E-2,-2.987710573E-2
3.627787515E0,-2.831163874E-4,-2.466443367E-2,-2.987710573E-2
3.630244668E0,-1.365620177E-3,-2.666290104E-2,-3.052660823E-2
3.632764524E0,-3.663859097E-3,-2.971056662E-2,-3.052660823E-2
3.635259479E0,-5.662327632E-3,-2.929421887E-2,-3.039337695E-2
3.637754800E0,-7.394333836E-3,-2.861140855E-2,-2.986045182E-2
3.640238198E0,-8.876531385E-3,-3.007695265E-2,-3.026014566E-2
3.642745156E0,-8.476837538E-3,-2.994372137E-2,-2.906106412E-2
3.645240355E0,-1.060853712E-2,-2.951071970E-2,-2.801186778E-2
3.647735024E0,-1.114146225E-2,-2.964395098E-2,-2.614662983E-2
3.650208779E0,-1.179096475E-2,-2.789529040E-2,-2.509743534E-2
3.652724893E0,-1.114146225E-2,-2.922760323E-2,-2.269927226E-2
3.655219521E0,-1.110815443E-2,-2.654632367E-2,-2.060087956E-2
3.657715005E0,-1.110815443E-2,-2.612997591E-2,-1.755321585E-2
3.660210692E0,-9.492726065E-3,-2.466443367E-2,-1.557140145E-2
3.662705647E0,-9.342840873E-3,-2.319888957E-2,-1.279019937E-2
3.665216795E0,-9.059724398E-3,-2.278254181E-2,-9.476072155E-3
3.667694945E0,-8.127105422E-3,-2.304900438E-2,-7.494257297E-3
3.670190550E0,-5.445826799E-3,-2.199980803E-2,-4.979517311E-3
3.672658160E0,-3.963629249E-3,-2.211638540E-2,-1.532159280E-3
3.675180825E0,-1.165773370E-3,-2.279919572E-2,3.164241789E-4
3.677653807E0,-7.494257297E-4,-2.199980803E-2,3.630551277E-3
3.680144855E0,3.663859097E-3,-2.201646194E-2,5.612365901E-3
3.682665648E0,4.862940405E-3,-2.176665328E-2,7.077909540E-3
3.685161050E0,5.928790197E-3,-2.189988457E-2,8.260336705E-3
3.687655800E0,6.728177425E-3,-2.216634713E-2,8.660030551E-3
3.690151081E0,8.743300103E-3,-2.165007591E-2,9.975688532E-3
3.692645954E0,1.009226590E-2,-2.085068822E-2,1.090830751E-2
3.695141193E0,1.102488488E-2,-2.100057341E-2,9.709226899E-3
3.697634072E0,1.074176840E-2,-2.126703598E-2,9.326186962E-3
3.700105142E0,1.075842232E-2,-1.991806924E-2,1.064184494E-2
3.702601236E0,1.009226590E-2,-1.925191469E-2,7.977220230E-3
3.705121499E0,9.026416577E-3,-1.858575828E-2,6.128637120E-3
3.707615518E0,8.493491448E-3,-1.898545213E-2,4.796324763E-3
3.710110879E0,5.828866735E-3,-1.790294796E-2,2.414816292E-3
3.712606403E0,5.029479042E-3,-1.763648540E-2,1.748659997E-3
3.715081094E0,1.149119460E-3,-1.707025245E-2,2.015122445E-3
3.717552204E0,-3.513973905E-3,-1.583786309E-2,2.831163874E-4
3.720091429E0,-6.994639989E-3,-1.675382815E-2,-1.698698266E-3
3.722586505E0,-1.057522930E-2,-1.272358373E-2,-3.297473071E-3
3.725081419E0,-1.229058206E-2,-1.165773347E-2,-3.563935636E-3
3.727576537E0,-1.655398123E-2,-9.875766002E-3,-3.830398200E-3
3.730071124E0,-2.178330719E-2,-1.117477007E-2,-3.830398200E-3
3.732583901E0,-2.578024380E-2,-1.047530584E-2,-4.230091814E-3
3.735061156E0,-2.831163816E-2,-9.925727732E-3,-5.429172888E-3
3.737556720E0,-3.299138695E-2,-9.342840873E-3,-2.647970803E-3
3.740050820E0,-3.565600887E-2,-9.192955680E-3,-2.381508471E-3
3.742546630E0,-3.807082772E-2,-9.842458181E-3,-1.848583459E-3
3.745017658E0,-3.887021542E-2,-9.825804271E-3,-7.827335503E-4
3.747536131E0,-4.020252451E-2,-1.034207456E-2,1.598774921E-3
3.750031330E0,-4.035241157E-2,-1.207408123E-2,1.998468535E-3
3.752527057E0,-4.073544964E-2,-1.139127091E-2,2.531393431E-3
3.755002847E0,-3.913667798E-2,-1.074176840E-2,1.865237369E-3
3.757517007E0,-3.873698413E-2,-1.220731251E-2,4.396630917E-3
3.760011596E0,-3.660528362E-2,-1.289012190E-2,3.464012174E-3
3.762507200E0,-3.500650823E-2,-1.237385161E-2,4.529862199E-3
3.764960082E0,-3.405723721E-2,-1.117477007E-2,5.845520645E-3
3.767496418E0,-3.285815567E-2,-1.119142398E-2,2.664624713E-3
3.769991697E0,-3.019353002E-2,-1.134130917E-2,3.980283160E-3
3.772481200E0,-2.992706746E-2,-1.160777174E-2,3.597243456E-3
3.774956053E0,-2.657963149E-2,-1.005895808E-2,7.993874606E-4
3.777476561E0,-2.762882784E-2,-7.644142490E-3,1.598774921E-3
3.779971719E0,-2.588016726E-2,-7.910604589E-3,2.514739521E-3
3.782467528E0,-2.546382137E-2,-6.311830133E-3,2.381508471E-3
3.784962197E0,-2.451454848E-2,-4.579823930E-3,2.897779457E-3
3.787457192E0,-2.518070489E-2,-3.647205187E-3,2.498085611E-3
3.789933999E0,-2.544716746E-2,-3.114280291E-3,1.582121011E-3
3.792445678E0,-2.476435713E-2,-1.915199100E-3,3.563935636E-3
3.794942300E0,-2.583020553E-2,-5.828866852E-4,2.098391997E-3
3.797403278E0,-2.632982284E-2,2.764548175E-3,3.946975339E-3
3.799932087E0,-2.832829207E-2,3.580589546E-3,2.881125547E-3
3.802443642E0,-2.886121720E-2,3.197549842E-3,4.596477840E-3
3.804897053E0,-3.097626381E-2,5.479134619E-3,4.463246558E-3
3.807416991E0,-3.177564964E-2,6.944678258E-3,4.063552711E-3
3.809912311E0,-3.124272637E-2,5.612365901E-3,4.996171221E-3
3.812407876E0,-3.242515400E-2,7.227794733E-3,6.178598851E-3
3.814902546E0,-3.284149989E-2,5.229325965E-3,6.977986079E-3
3.817397581E0,-3.498985246E-2,4.330015276E-3,8.976454847E-3
3.819892332E0,-3.379077464E-2,4.313361365E-3,8.443529718E-3
3.822355671E0,-3.513973951E-2,1.931853010E-3,1.084169187E-2
3.824836791E0,-3.595577925E-2,2.165007609E-4,1.215735078E-2
3.827377521E0,-3.570597246E-2,-1.515505370E-3,1.322320011E-2
3.829871988E0,-3.665524349E-2,-3.780436469E-3,1.190754212E-2
3.832367227E0,-3.479000553E-2,-5.129402503E-3,1.483862940E-2
3.834863483E0,-3.602239490E-2,-7.111217361E-3,1.470539812E-2
3.837357990E0,-3.588916361E-2,-7.377679925E-3,1.642074995E-2
3.839827310E0,-3.603905067E-2,-1.084169187E-2,1.657063514E-2
3.842323688E0,-3.643874452E-2,-9.642611258E-3,1.577124745E-2
3.844842609E0,-3.603905067E-2,-1.059188321E-2,1.537155453E-2
3.847338256E0,-3.577258810E-2,-9.392802604E-3,1.523832325E-2
3.849832029E0,-3.470673785E-2,-9.526033886E-3,1.497186068E-2
3.852327839E0,-3.322454169E-2,-8.876531385E-3,1.392266434E-2
3.854822793E0,-3.215869144E-2,-9.426110424E-3,1.165773347E-2
3.857326496E0,-3.041003086E-2,-7.977220230E-3,1.007561199E-2
3.859812743E0,-2.934418060E-2,-6.928024348E-3,9.276225232E-3
3.862307901E0,-2.866137028E-2,-5.595711991E-3,8.876531385E-3
3.864802774E0,-2.746228874E-2,-4.946209956E-3,6.611600053E-3
3.867298501E0,-2.503081970E-2,-2.831163816E-3,7.144525182E-3
3.869748493E0,-2.543051355E-2,-2.298238920E-3,5.146056414E-3
3.872287922E0,-2.314892784E-2,-1.781967818E-3,6.345137954E-3
3.874783568E0,-2.153349854E-2,6.661561929E-5,6.328484043E-3
3.877278726E0,-2.006795444E-2,-6.661561929E-5,6.062021479E-3
3.879773274E0,-1.870233566E-2,2.981049009E-3,5.262633786E-3
3.882243203E0,-1.818606444E-2,1.382274088E-3,5.529096350E-3
3.884763833E0,-1.710356027E-2,3.230857430E-3,6.195252761E-3
3.887258625E0,-1.763648540E-2,2.314892830E-3,6.328484043E-3
3.889727782E0,-1.577124745E-2,3.230857430E-3,5.928790197E-3
3.892248045E0,-1.510509197E-2,2.697932534E-3,6.461714860E-3
3.894743651E0,-1.508843806E-2,4.296707455E-3,6.311830133E-3
3.897212849E0,-1.632082649E-2,9.659265052E-4,7.127871271E-3
3.899720132E0,-1.672052033E-2,1.365620177E-3,6.861408707E-3
3.902228189E0,-1.618759520E-2,3.330780964E-5,6.195252761E-3
3.904723021E0,-1.580455527E-2,-1.715352177E-3,6.211906672E-3
3.907218748E0,-1.968491636E-2,-1.815275638E-3,5.945444107E-3
3.909713988E0,-2.023449354E-2,-2.614662983E-3,4.746363033E-3
3.912208454E0,-2.183326893E-2,-3.797090380E-3,5.279287696E-3
3.914684040E0,-2.158346027E-2,-4.746363033E-3,4.096860532E-3
3.917197427E0,-2.224961668E-2,-4.996171221E-3,4.363323096E-3
3.919694131E0,-2.386504598E-2,-5.262633786E-3,2.115045907E-3
3.922179890E0,-2.506412752E-2,-6.461714860E-3,1.582121011E-3
3.924683958E0,-2.574693598E-2,-7.527565118E-3,-1.715352177E-3
3.927171630E0,-2.508078143E-2,-6.744831335E-3,-2.381508471E-3
3.929652343E0,-2.629651502E-2,-7.527565118E-3,-3.447358264E-3
3.932169391E0,-2.548047528E-2,-7.144525182E-3,-5.695635453E-3
3.934664224E0,-2.536389790E-2,-7.694104221E-3,-7.410987746E-3
3.937159504E0,-2.508078143E-2,-6.495022681E-3,-9.409456514E-3
3.939654417E0,-2.614662983E-2,-5.562404171E-3,-1.219065860E-2
3.942148924E0,-2.548047528E-2,-4.912902135E-3,-1.337308530E-2
3.944644205E0,-2.428139374E-2,-4.796324763E-3,-1.470539812E-2
3.947113483E0,-2.239950188E-2,-3.080972470E-3,-1.550478581E-2
3.949628050E0,-2.226627059E-2,-4.030244891E-3,-1.642074995E-2
3.952128783E0,-2.171669155E-2,-2.431470202E-3,-1.630417258E-2
3.954623818E0,-2.013457008E-2,-4.046898801E-3,-1.695367508E-2
3.957118895E0,-1.838591136E-2,-3.130934201E-3,-1.895214431E-2
3.959614664E0,-1.796956360E-2,-5.995405954E-4,-1.895214431E-2
3.962109089E0,-1.612097956E-2,-2.881125547E-3,-1.841921918E-2
3.964629108E0,-1.600440219E-2,-4.613131750E-3,-1.986810938E-2
3.967073444E0,-1.343970094E-2,-2.897779457E-3,-1.935183816E-2
3.969594441E0,-1.343970094E-2,-2.764548175E-3,-2.013457008E-2
3.972089761E0,-1.410585735E-2,-2.631316893E-3,-1.908537559E-2
3.974584797E0,-1.224062033E-2,-2.914433368E-3,-1.855245046E-2
3.977080036E0,-1.279019937E-2,-4.763016943E-3,-1.708690636E-2
3.979574421E0,-1.225727424E-2,-3.980283160E-3,-1.881891303E-2
3.982069335E0,-1.507178415E-2,-4.896248225E-3,-1.933518425E-2
3.984564330E0,-1.372281741E-2,-4.096860532E-3,-1.775306277E-2
3.987060220E0,-1.705359854E-2,-3.797090380E-3,-1.801952533E-2
3.989564411E0,-1.746994630E-2,-4.463246558E-3,-1.708690636E-2
3.992049519E0,-2.108384296E-2,-4.829632584E-3,-1.748660021E-2
3.994517537E0,-2.173334546E-2,-3.763782559E-3,-1.748660021E-2
3.997014037E0,-2.466443367E-2,-3.330780892E-3,-1.668721251E-2
3.999513915E0,-2.772875130E-2,-1.848583459E-3,-1.855245046E-2
4.002030354E0,-3.014356829E-2,-2.897779457E-3,-1.933518425E-2
4.004524290E0,-2.959398925E-2,-9.992343257E-5,-1.828598790E-2
4.007020425E0,-3.294142336E-2,-7.494257297E-4,-1.961830072E-2
4.009489705E0,-3.480666131E-2,-3.330780892E-4,-1.975153200E-2
4.012012328E0,-3.585585579E-2,7.494257297E-4,-2.028445527E-2
4.014479206E0,-3.988610208E-2,-9.659265052E-4,-1.973487809E-2
4.016999674E0,-4.053560272E-2,1.715352177E-3,-2.081738040E-2
4.019495563E0,-4.133499041E-2,1.165773356E-4,-1.895214431E-2
4.021989948E0,-4.308365285E-2,5.329249543E-4,-2.041768655E-2
4.024484944E0,-4.374980927E-2,2.664624772E-4,-2.121707425E-2
4.026980549E0,-4.454919696E-2,9.492725949E-4,-2.015122399E-2
4.029475015E0,-4.414950311E-2,-1.165773356E-4,-2.001799271E-2
4.031956216E0,-4.549846798E-2,-1.032542088E-3,-1.921860687E-2
4.034440144E0,-4.576493055E-2,-2.098391997E-3,-1.895214431E-2
4.036934162E0,-4.711389542E-2,-3.697166918E-3,-1.788629405E-2
4.039430134E0,-4.618127644E-2,-3.830398200E-3,-1.735336892E-2
4.041924885E0,-4.593146965E-2,-5.962098017E-3,-1.775306277E-2
4.044420246E0,-4.756355286E-2,-8.743300103E-3,-1.508843806E-2
4.046915730E0,-4.569831491E-2,-9.559341706E-3,-1.428905036E-2
4.049410277E0,-4.651435465E-2,-1.249042898E-2,-1.415581908E-2
4.051930337E0,-4.584819824E-2,-1.328981575E-2,-1.229058206E-2
4.054425048E0,-4.601473734E-2,-1.622090302E-2,-1.135796309E-2
4.056899535E0,-4.817974567E-2,-1.978483982E-2,-8.560107090E-3
4.059415527E0,-4.751358926E-2,-2.113380469E-2,-7.893950678E-3
4.061911009E0,-4.792993888E-2,-2.284915745E-2,-4.846286494E-3
4.064405517E0,-4.834628478E-2,-2.564701252E-2,-3.913667519E-3
4.066900838E0,-4.902909696E-2,-2.669620886E-2,-1.132465550E-3
4.069413003E0,-4.929555953E-2,-2.814509906E-2,2.331546741E-3
4.071898925E0,-5.009494722E-2,-2.719582617E-2,3.114280291E-3
4.074385986E0,-5.264299363E-2,-2.849483117E-2,6.694869604E-3
4.076881265E0,-5.262633786E-2,-2.782867476E-2,7.494257297E-3
4.079375324E0,-5.329249427E-2,-2.847817726E-2,1.185758039E-2
4.081871337E0,-5.369218811E-2,-2.834494598E-2,1.239050552E-2
4.084365721E0,-5.464146286E-2,-2.939414233E-2,1.438897382E-2
4.086861490E0,-5.529096350E-2,-2.857810073E-2,1.650401950E-2
4.089339110E0,-5.422511324E-2,-2.844486944E-2,1.915199123E-2
4.091850707E0,-5.287614837E-2,-2.684609406E-2,1.953503117E-2
4.094346353E0,-5.260968581E-2,-2.684609406E-2,2.231623232E-2
4.096844970E0,-5.112748966E-2,-2.551378310E-2,2.351531386E-2
4.099335855E0,-5.017821491E-2,-2.418147027E-2,2.416481636E-2
4.101820067E0,-4.763016850E-2,-2.446458675E-2,2.588016726E-2
4.104318155E0,-4.654766247E-2,-2.259934880E-2,2.719582617E-2
4.106795287E0,-4.438265786E-2,-1.993472315E-2,2.824502252E-2
4.109291096E0,-4.290045798E-2,-1.687040552E-2,2.864471637E-2
4.111811522E0,-4.018587247E-2,-1.343970094E-2,2.691270970E-2
4.114280720E0,-3.883690760E-2,-1.197415777E-2,2.849483117E-2
4.116775837E0,-3.762117028E-2,-9.459418245E-3,2.596343681E-2
4.119270832E0,-3.668855131E-2,-9.209609590E-3,2.516405098E-2
4.121767537E0,-3.505646810E-2,-6.012059748E-3,2.369850688E-2
4.124284871E0,-3.317457810E-2,-3.230857430E-3,2.249942534E-2
4.126758951E0,-3.209207579E-2,-1.781967818E-3,2.196650021E-2
4.129265950E0,-3.275823221E-2,-1.648736536E-3,1.785298623E-2
4.131770182E0,-3.247511387E-2,1.265696716E-3,1.665390469E-2
4.134266722E0,-3.140926361E-2,1.132465550E-3,1.573793963E-2
4.136736286E0,-3.125938028E-2,1.398927998E-3,1.612097956E-2
4.139256550E0,-3.247511387E-2,1.532159280E-3,1.440562773E-2
4.141751748E0,-3.169238195E-2,-8.826569538E-4,1.242381334E-2
4.144247151E0,-3.277488425E-2,-2.081738086E-3,1.070846058E-2
4.146742146E0,-3.130934015E-2,-2.231623279E-3,8.726646192E-3
4.149237263E0,-2.956068143E-2,-1.848583459E-3,8.060489781E-3
4.151732502E0,-2.984379791E-2,-3.580589546E-3,7.660796400E-3
4.154226643E0,-2.837825380E-2,-3.214203520E-3,5.545750260E-3
4.156696329E0,-2.824502252E-2,-2.414816292E-3,2.897779457E-3
4.159218423E0,-2.756221220E-2,-1.232389011E-3,2.231623279E-3
4.161667358E0,-2.689605579E-2,2.331546712E-4,-6.994639989E-4
4.164181233E0,-2.354862168E-2,3.164241789E-4,-5.062786862E-3
4.166676268E0,-2.448124066E-2,1.382274088E-3,-7.710758131E-3
4.169197468E0,-2.406489290E-2,3.364088712E-3,-1.064184494E-2
4.171692830E0,-2.433135547E-2,3.630551277E-3,-1.262366027E-2
4.174199380E0,-2.471439540E-2,6.028713658E-3,-1.422243472E-2
4.176681965E0,-2.566366643E-2,5.895482376E-3,-1.580455527E-2
4.179177612E0,-2.684609406E-2,7.361026015E-3,-1.780302450E-2
4.181672810E0,-2.712921053E-2,6.678215694E-3,-2.003464662E-2
4.184167683E0,-2.926091105E-2,7.361026015E-3,-2.150019072E-2
4.186662231E0,-3.085968643E-2,7.244448643E-3,-2.123372816E-2
4.189131551E0,-3.205876797E-2,7.644142490E-3,-2.096726559E-2
4.191652098E0,-3.394065797E-2,6.461714860E-3,-2.096726559E-2
4.194147745E0,-3.420712054E-2,6.594946142E-3,-2.056757174E-2
4.196625040E0,-3.540620208E-2,6.611600053E-3,-2.189988457E-2
4.199137124E0,-3.435700387E-2,4.862940405E-3,-2.188323066E-2
4.201632120E0,-3.359092772E-2,1.915199100E-3,-2.214969322E-2
4.204101969E0,-3.319123387E-2,1.115811639E-3,-2.253273316E-2
4.206622476E0,-3.080972470E-2,-7.827335503E-4,-2.424808592E-2
4.209118082E0,-2.879460156E-2,-9.326186846E-4,-2.399827726E-2
4.211612385E0,-2.654632367E-2,-3.214203520E-3,-2.331546694E-2
4.214108153E0,-2.283250354E-2,-5.245979875E-3,-2.503081970E-2
4.216601846E0,-1.843587309E-2,-6.495022681E-3,-2.649636194E-2
4.219098103E0,-1.378943305E-2,-9.859112091E-3,-2.568032034E-2
4.221593220E0,-7.927258499E-3,-1.257369854E-2,-2.461447194E-2
4.224093627E0,-4.846286494E-3,-1.179096475E-2,-2.409820072E-2
4.226582722E0,-9.992342675E-4,-1.488859113E-2,-2.488093451E-2
4.229078247E0,1.132465550E-3,-1.625421084E-2,-2.474770322E-2
4.231529336E0,4.463246558E-3,-1.707025245E-2,-2.234954014E-2
4.234068114E0,7.011293899E-3,-1.733671501E-2,-2.023449354E-2
4.236562744E0,6.994639989E-3,-1.800287142E-2,-1.718682982E-2
4.239058511E0,7.127871271E-3,-1.866902784E-2,-1.718682982E-2
4.241527343E0,6.744831335E-3,-1.692036726E-2,-1.533824671E-2
4.244047688E0,4.879594315E-3,-1.648736559E-2,-1.255704463E-2
4.246542886E0,1.815275638E-3,-1.553809363E-2,-1.084169187E-2
4.249038736E0,-1.082503819E-3,-1.242381334E-2,-9.259571321E-3
4.251533569E0,-5.212672055E-3,-1.039203629E-2,-8.726646192E-3
4.254029784E0,-8.693338372E-3,-1.222396642E-2,-7.011293899E-3
4.256512206E0,-1.310662273E-2,-1.152450219E-2,-5.412518978E-3
4.259017903E0,-1.843587309E-2,-9.742534719E-3,-4.496554378E-3
4.261513712E0,-2.323219739E-2,-8.626722731E-3,-4.096860532E-3
4.263982828E0,-2.802852169E-2,-8.709992282E-3,-2.381508471E-3
4.266477905E0,-3.285815567E-2,-9.609303437E-3,-2.514739521E-3
4.268975830E0,-3.592247143E-2,-8.393567987E-3,-3.697166918E-3
4.271471679E0,-4.113514349E-2,-8.876531385E-3,-7.827335503E-4
4.273988769E0,-4.328349978E-2,-1.005895808E-2,-2.364854561E-3
4.276484008E0,-4.688074067E-2,-9.892419912E-3,-2.498085669E-4
4.278978636E0,-4.944544286E-2,-1.282350626E-2,-1.965160714E-3
4.281474039E0,-5.119410157E-2,-1.425574254E-2,3.330780964E-5
4.283969278E0,-5.132733285E-2,-1.492189895E-2,-3.663859097E-4
4.286464232E0,-5.227660760E-2,-1.532159280E-2,-4.996171338E-4
4.288925373E0,-5.282618478E-2,-1.720348373E-2,-3.280819161E-3
4.291425252E0,-5.216002837E-2,-1.840256527E-2,-2.881125547E-3
4.293948649E0,-5.255972221E-2,-1.853579655E-2,-2.081738086E-3
4.296444416E0,-5.284284055E-2,-1.986810938E-2,-3.663859097E-3
4.298939086E0,-5.124406517E-2,-2.095061168E-2,-2.464778023E-3
4.301434326E0,-5.086102709E-2,-2.174999937E-2,-3.397396533E-3
4.303929320E0,-5.006163940E-2,-2.296573482E-2,-4.579823930E-3
4.306398396E0,-4.778005183E-2,-2.178330719E-2,-4.180130083E-3
4.308913777E0,-4.646439478E-2,-2.284915745E-2,-3.513973905E-3
4.311414346E0,-4.431604221E-2,-2.206642367E-2,-3.530627815E-3
4.313909342E0,-4.469908029E-2,-2.060087956E-2,-3.663859097E-3
4.316404459E0,-4.068548977E-2,-1.876895130E-2,-3.130934201E-3
4.318899291E0,-3.946975619E-2,-1.756986976E-2,-2.348200651E-3
4.321394612E0,-3.585585579E-2,-1.653732732E-2,-3.147588111E-3
4.323863769E0,-3.623889759E-2,-1.545482408E-2,-1.565467101E-3
4.326383870E0,-3.420712054E-2,-1.254039072E-2,-2.364854561E-3
4.328879678E0,-3.044333868E-2,-9.892419912E-3,3.996937303E-4
4.331365234E0,-2.761217393E-2,-7.111217361E-3,-1.199081191E-3
4.333869791E0,-2.679613233E-2,-4.979517311E-3,-5.329249543E-4
4.336338825E0,-2.413150854E-2,-4.346669186E-3,-1.332312357E-3
4.338859049E0,-2.208307758E-2,-7.494257297E-4,-8.160413126E-4
4.341354736E0,-1.885222085E-2,2.814509906E-3,-1.482197549E-3
4.343849893E0,-1.657063514E-2,4.413284827E-3,-8.326952229E-4
4.346344929E0,-1.280685235E-2,5.845520645E-3,8.826569538E-4
4.348839965E0,-1.214069687E-2,6.644907873E-3,-1.831929549E-4
4.351334390E0,-8.393567987E-3,7.677450310E-3,3.497319994E-4
4.353829670E0,-6.245214492E-3,7.794027682E-3,7.494257297E-4
4.356288492E0,-3.031010740E-3,8.976454847E-3,5.995405954E-4
4.358819417E0,-4.996171338E-4,8.410221897E-3,-3.164241789E-4
4.361314900E0,1.365620177E-3,8.143759333E-3,-4.996171629E-5
4.363832560E0,4.296707455E-3,7.710758131E-3,6.161945057E-4
4.366279378E0,7.627488580E-3,5.828866735E-3,1.665390446E-3
4.368799600E0,8.959800936E-3,5.146056414E-3,-9.659265052E-4
4.371294881E0,1.134130917E-2,3.380742623E-3,-1.365620177E-3
4.373790201E0,1.265696809E-2,9.659265052E-4,-6.994639989E-4
4.376285074E0,1.692036726E-2,-1.065849909E-3,-2.414816292E-3
4.378780273E0,1.810279489E-2,-2.548047341E-3,-2.681278624E-3
4.381274698E0,2.036772482E-2,-4.696401302E-3,-2.131699817E-3
4.383769652E0,2.341539040E-2,-6.728177425E-3,-3.064318560E-3
4.386265624E0,2.499751188E-2,-9.142993949E-3,-1.865237369E-3
4.388734415E0,2.752890438E-2,-9.825804271E-3,-3.580589546E-3
4.391229370E0,2.819506079E-2,-1.050861366E-2,-5.029479042E-3
4.393750732E0,3.152584285E-2,-1.185758039E-2,-2.115045907E-3
4.396219929E0,3.299138695E-2,-1.240715943E-2,-3.963629249E-3
4.398740356E0,3.617228195E-2,-1.430570427E-2,-3.563935636E-3
4.401235635E0,3.617228195E-2,-1.470539812E-2,-3.697166918E-3
4.403730021E0,3.805417195E-2,-1.284016017E-2,-2.647970803E-3
4.406225382E0,4.006929323E-2,-1.272358373E-2,-1.182427281E-3
4.408720661E0,4.073544964E-2,-1.272358373E-2,1.065849909E-3
4.411216145E0,4.434935004E-2,-1.155781001E-2,-7.993874606E-4
4.413688436E0,4.476569593E-2,-1.007561199E-2,1.848583459E-3
4.416179280E0,4.438265786E-2,-8.476837538E-3,1.848583459E-3
4.418701049E0,4.573162273E-2,-7.943912409E-3,3.963629249E-3
4.421196370E0,4.628119990E-2,-5.678981543E-3,4.763016943E-3
4.423685262E0,4.856278747E-2,-3.963629249E-3,4.746363033E-3
4.426186034E0,4.964528978E-2,-3.430704353E-3,5.545750260E-3
4.428680867E0,4.844620824E-2,-1.698698266E-3,4.479900468E-3
4.431200683E0,4.779670760E-2,-7.494257297E-4,5.928790197E-3
4.433644937E0,4.739701375E-2,-8.326952229E-5,6.062021479E-3
4.436165323E0,4.606470093E-2,1.532159280E-3,4.996171221E-3
4.438661173E0,4.661427811E-2,1.382274088E-3,5.529096350E-3
4.441156412E0,4.594812170E-2,1.798621728E-3,4.996171221E-3
4.443651082E0,4.379976913E-2,1.415581908E-3,4.596477840E-3
4.446145548E0,4.205111042E-2,1.015888178E-3,3.547281725E-3
4.448615844E0,3.951971605E-2,1.432235818E-3,2.081738086E-3
4.451135497E0,3.832063451E-2,1.299004536E-3,3.663859097E-4
4.453608073E0,3.417381272E-2,5.329249543E-4,-4.330015217E-4
4.456100382E0,3.149253502E-2,1.082503819E-3,-1.615428715E-3
4.458621500E0,2.867802419E-2,2.997702977E-4,-2.414816292E-3
4.461101074E0,2.559705079E-2,-1.149119460E-3,-3.863706021E-3
4.463610921E0,2.213303931E-2,-7.161179092E-4,-3.996937070E-3
4.466106078E0,1.743663847E-2,-2.564701252E-3,-5.312595516E-3
4.468601481E0,1.249042898E-2,-2.647970803E-3,-6.111983210E-3
4.471096720E0,1.115811616E-2,-3.047664650E-3,-5.712289363E-3
4.473591511E0,6.461714860E-3,-5.012825131E-3,-6.361791864E-3
4.476086466E0,2.464778023E-3,-4.163476173E-3,-4.646439571E-3
4.478581543E0,-6.161945057E-4,-4.013590980E-3,-4.779670853E-3
4.481063354E0,-5.162710324E-3,-4.646439571E-3,-3.713820828E-3
4.483570882E0,-9.043070488E-3,-4.879594315E-3,-3.980283160E-3
4.486066365E0,-1.317323837E-2,-5.645673722E-3,-2.514739521E-3
4.488535563E0,-1.583786309E-2,-3.080972470E-3,-2.664624713E-3
4.491056152E0,-1.933518425E-2,-5.978751928E-3,-1.582121011E-3
4.493552246E0,-1.956833899E-2,-3.847052110E-3,-6.661561783E-4
4.496046549E0,-2.253273316E-2,-5.429172888E-3,-1.199081191E-3
4.498513793E0,-2.439797111E-2,-5.262633786E-3,2.514739521E-3
4.501036092E0,-2.584685944E-2,-4.446592648E-3,3.447358264E-3
4.503531820E0,-2.706259489E-2,-5.245979875E-3,3.713820828E-3
4.506026488E0,-2.839490771E-2,-5.762251094E-3,5.046132952E-3
4.508522176E0,-2.573028207E-2,-6.045367569E-3,5.978751928E-3
4.511017049E0,-2.761217393E-2,-6.295176223E-3,5.046132952E-3
4.513533650E0,-2.719582617E-2,-5.629019812E-3,5.845520645E-3
4.515997965E0,-2.761217393E-2,-6.295176223E-3,4.646439571E-3
4.518476155E0,-2.546382137E-2,-5.645673722E-3,4.379977006E-3
4.520997029E0,-2.533059008E-2,-5.262633786E-3,2.781202085E-3
4.523492268E0,-2.546382137E-2,-5.529096350E-3,9.326186846E-4
4.525962239E0,-2.428139374E-2,-6.345137954E-3,-9.159647743E-4
4.528481527E0,-2.319888957E-2,-5.429172888E-3,-2.381508471E-3
4.530976928E0,-2.199980803E-2,-6.245214492E-3,-4.763016943E-3
4.533472127E0,-2.173334546E-2,-5.329249427E-3,-8.210374974E-3
4.535926229E0,-1.906872168E-2,-5.229325965E-3,-1.032542065E-2
4.538461873E0,-1.880225912E-2,-4.713055212E-3,-1.350631658E-2
4.540957234E0,-1.838591136E-2,-3.780436469E-3,-1.510509197E-2
4.543452026E0,-1.760317758E-2,-5.279287696E-3,-1.866902784E-2
4.545923217E0,-1.587117091E-2,-5.146056414E-3,-1.880225912E-2
4.548416748E0,-1.507178415E-2,-5.162710324E-3,-2.091730386E-2
4.550937622E0,-1.467209030E-2,-4.379977006E-3,-2.291577309E-2
4.553432535E0,-1.468874421E-2,-6.245214492E-3,-2.329881303E-2
4.555901407E0,-1.480532158E-2,-5.179364234E-3,-2.489758842E-2
4.558422078E0,-1.440562773E-2,-5.179364234E-3,-2.356527559E-2
4.560917765E0,-1.482197549E-2,-7.327718195E-3,-2.476435713E-2
4.563386352E0,-1.322320011E-2,-6.794793066E-3,-2.396496944E-2
4.565907104E0,-1.430570427E-2,-8.909839205E-3,-2.289911918E-2
4.568402669E0,-1.403924171E-2,-8.776607923E-3,-2.105053514E-2
4.570897745E0,-1.468874421E-2,-8.493491448E-3,-1.931853034E-2
4.573375203E0,-1.497186068E-2,-9.159647860E-3,-1.800287142E-2
4.575887410E0,-1.565467007E-2,-1.075842232E-2,-1.771975495E-2
4.578382690E0,-1.538820844E-2,-1.154115610E-2,-1.388935652E-2
4.580878336E0,-1.603771001E-2,-1.032542065E-2,-1.337308530E-2
4.583372762E0,-1.617094129E-2,-1.085834578E-2,-1.097492315E-2
4.585867919E0,-1.618759520E-2,-1.244046725E-2,-9.392802604E-3
4.588342773E0,-1.738667674E-2,-1.242381334E-2,-6.744831335E-3
4.590835001E0,-1.673717424E-2,-1.403924171E-2,-7.794027682E-3
4.593352621E0,-1.712021418E-2,-1.375612523E-2,-5.412518978E-3
4.595848185E0,-1.898545213E-2,-1.227392815E-2,-4.613131750E-3
4.598342570E0,-2.071745694E-2,-1.237385161E-2,-1.831929549E-3
4.600838094E0,-1.965160854E-2,-1.145788655E-2,-3.031010740E-3
4.603324340E0,-1.965160854E-2,-1.212404296E-2,-3.031010740E-3
4.605827677E0,-1.908537559E-2,-9.059724398E-3,-3.963629249E-3
4.608323242E0,-1.935183816E-2,-8.526799269E-3,-4.096860532E-3
4.610818359E0,-1.771975495E-2,-5.745597184E-3,-5.295941606E-3
4.613312947E0,-1.732006110E-2,-5.479134619E-3,-5.429172888E-3
4.615783691E0,-1.771975495E-2,-4.013590980E-3,-6.628253963E-3
4.618277953E0,-1.703694463E-2,-2.947741188E-3,-7.027947810E-3
4.620772460E0,-1.475535985E-2,-1.249042805E-3,-1.009226590E-2
4.623272746E0,-1.448889729E-2,-4.496554320E-4,-1.022549719E-2
4.625787842E0,-1.247377507E-2,1.265696716E-3,-1.089165360E-2
4.628283691E0,-1.232388988E-2,2.864471637E-3,-1.222396642E-2
4.630753377E0,-1.015888155E-2,5.112748593E-3,-1.222396642E-2
4.633249390E0,-7.644142490E-3,4.013590980E-3,-1.380608696E-2
4.635768310E0,-7.227794733E-3,5.479134619E-3,-1.500516851E-2
4.638263834E0,-6.012059748E-3,7.194486912E-3,-1.475535985E-2
4.640758464E0,-4.812978674E-3,6.261868402E-3,-1.473870594E-2
4.643254028E0,-3.347434802E-3,5.978751928E-3,-1.448889729E-2
4.645722900E0,-2.797855996E-3,6.911370438E-3,-1.355627831E-2
4.648203084E0,-1.998468535E-3,6.911370438E-3,-1.342304703E-2
4.650738240E0,-1.215735101E-3,5.695635453E-3,-1.355627831E-2
4.653233846E0,1.065849909E-3,5.429172888E-3,-1.144123264E-2
4.655731282E0,2.264931099E-3,5.962098017E-3,-9.575995617E-3
4.658223226E0,3.713820828E-3,3.663859097E-3,-1.102488488E-2
4.660712280E0,4.246745724E-3,2.864471637E-3,-8.510145359E-3
4.663209432E0,5.579058081E-3,2.331546741E-3,-8.643376641E-3
4.665708862E0,4.779670853E-3,2.747894265E-3,-7.177833002E-3
4.668203775E0,5.312595516E-3,1.132465550E-3,-6.644907873E-3
4.670699219E0,6.245214492E-3,9.992342675E-4,-5.196018144E-3
4.673194173E0,8.227028884E-3,-8.826569538E-4,-4.529862199E-3
4.675689127E0,7.577526849E-3,4.663093423E-4,-3.863706021E-3
4.678184122E0,7.960566320E-3,-2.081738086E-3,-3.330780892E-3
4.680653605E0,5.962098017E-3,-7.161179092E-4,-3.197549842E-3
4.683173868E0,6.495022681E-3,-7.161179092E-4,-1.482197549E-3
4.685669026E0,6.228560582E-3,-1.915199100E-3,-6.828100886E-4
4.688138224E0,3.830398200E-3,-1.232389011E-3,-1.615428715E-3
4.690658854E0,3.813744290E-3,-2.564701252E-3,-1.498851489E-4
4.693154500E0,4.096860532E-3,-1.632082625E-3,-2.831163874E-4
4.695649536E0,1.682044356E-3,-2.148353728E-3,-1.665390482E-5
4.698143921E0,1.931853010E-3,-3.214203520E-3,-1.665390482E-5
4.700638956E0,-2.065084176E-3,-3.430704353E-3,2.764548175E-3
4.703134643E0,-8.660030435E-4,-4.130168352E-3,5.162710440E-4
4.705629761E0,-2.481431933E-3,-4.246745724E-3,1.582121011E-3
4.708124023E0,-3.014356829E-3,-4.646439571E-3,-1.332312386E-4
4.710619832E0,-5.179364234E-3,-7.694104221E-3,6.661561783E-4
4.713114705E0,-7.177833002E-3,-6.744831335E-3,1.332312386E-4
4.715608194E0,-7.993874140E-3,-9.142993949E-3,1.065849909E-3
4.718078776E0,-8.276990615E-3,-1.047530584E-2,-5.162710440E-4
4.720600220E0,-8.693338372E-3,-1.194084994E-2,8.160413126E-4
4.723094117E0,-1.149119437E-2,-1.217400469E-2,2.831163874E-4
4.725589599E0,-1.042534411E-2,-1.259035245E-2,-1.165773356E-4
4.728043538E0,-1.190754212E-2,-1.390601043E-2,4.163476115E-4
4.730579387E0,-1.245712116E-2,-1.457216684E-2,1.881891279E-3
4.733074829E0,-1.232388988E-2,-1.458882075E-2,-1.565467101E-3
4.735569824E0,-1.418912690E-2,-1.522166934E-2,-9.992343257E-5
4.738065023E0,-1.353962440E-2,-1.657063514E-2,-9.992343257E-5
4.740559529E0,-1.353962440E-2,-1.603771001E-2,-1.415581908E-3
4.743055298E0,-1.365620177E-2,-1.537155453E-2,-8.993108640E-4
4.745550252E0,-1.552143972E-2,-1.442228165E-2,-1.565467101E-3
4.748051554E0,-1.592113264E-2,-1.348966267E-2,-4.996171338E-4
4.750539428E0,-1.630417258E-2,-1.240715943E-2,-6.328483578E-4
4.753034790E0,-1.443893556E-2,-1.282350626E-2,-1.165773370E-3
4.755512329E0,-1.482197549E-2,-1.042534411E-2,-2.364854561E-3
4.758008545E0,-1.507178415E-2,-8.560107090E-3,-1.049195998E-3
4.760503540E0,-1.640409604E-2,-7.744065952E-3,-1.582121011E-3
4.762984538E0,-1.478866767E-2,-5.379211158E-3,-5.295941606E-3
4.765493733E0,-1.462212857E-2,-2.964395098E-3,-3.447358264E-3
4.767988729E0,-1.448889729E-2,-2.165007638E-3,-4.779670853E-3
4.770484050E0,-1.380608696E-2,-7.161179092E-4,-6.894716527E-3
4.772957845E0,-1.300669927E-2,-5.828866852E-4,-6.378445774E-3
4.775473714E0,-1.365620177E-2,1.282350626E-3,-7.960566320E-3
4.777969198E0,-1.365620177E-2,2.481431933E-3,-9.426110424E-3
4.780453613E0,-1.230723597E-2,3.797090380E-3,-1.089165360E-2
4.782958943E0,-1.337308530E-2,4.063552711E-3,-1.313993055E-2
4.785434204E0,-1.405589562E-2,4.063552711E-3,-1.393931825E-2
4.787948526E0,-1.485528331E-2,4.063552711E-3,-1.353962440E-2
4.790444336E0,-1.552143972E-2,3.680513008E-3,-1.367285568E-2
4.792955160E0,-1.443893556E-2,4.996171221E-3,-1.672052033E-2
4.795450481E0,-1.432235818E-2,4.180130083E-3,-1.712021418E-2
4.797919718E0,-1.700363681E-2,3.547281725E-3,-1.685375161E-2
4.800440267E0,-1.620424911E-2,3.264165251E-3,-1.763648540E-2
4.802935832E0,-1.702029072E-2,2.314892830E-3,-2.108384296E-2
4.805404948E0,-1.795290969E-2,1.398927998E-3,-2.001799271E-2
4.807899862E0,-2.051761001E-2,-7.161179092E-4,-2.146688290E-2
4.810420492E0,-1.903541386E-2,-5.828866852E-4,-1.935183816E-2
4.812916341E0,-2.025114745E-2,-2.181661548E-3,-2.013457008E-2
4.815411011E0,-2.001799271E-2,-4.996171221E-3,-2.000133879E-2
4.817905965E0,-2.334877476E-2,-4.563170020E-3,-2.026780136E-2
4.820401163E0,-2.416481636E-2,-5.345903337E-3,-2.066749521E-2
4.822870849E0,-2.523066662E-2,-6.678215694E-3,-1.906872168E-2
4.825390544E0,-2.524732053E-2,-7.477603387E-3,-1.893549040E-2
4.827886109E0,-2.726244181E-2,-9.059724398E-3,-1.920195296E-2
4.830359619E0,-2.832829207E-2,-8.643376641E-3,-1.840256527E-2
4.832875732E0,-3.047664650E-2,-9.692572989E-3,-1.840256527E-2
4.835327922E0,-3.219199926E-2,-9.142993949E-3,-1.628751867E-2
4.837870849E0,-3.409054503E-2,-1.085834578E-2,-1.667055860E-2
4.840361572E0,-3.553943336E-2,-9.909073822E-3,-1.602105610E-2
4.842856568E0,-3.580589592E-2,-9.775842540E-3,-1.535490062E-2
4.845351359E0,-3.742132336E-2,-1.095826924E-2,-1.535490062E-2
4.847846680E0,-3.822071105E-2,-1.055857539E-2,-1.535490062E-2
4.850341105E0,-3.915333003E-2,-9.742534719E-3,-1.522166934E-2
4.852836547E0,-3.875363618E-2,-9.875766002E-3,-1.415581908E-2
4.855305623E0,-3.900344670E-2,-8.276990615E-3,-1.575459354E-2
4.857826131E0,-3.887021542E-2,-9.209609590E-3,-1.455551293E-2
4.860321696E0,-3.980283067E-2,-7.460949477E-3,-1.230723597E-2
4.862778239E0,-3.991940990E-2,-6.528330501E-3,-1.232388988E-2
4.865311117E0,-4.111849144E-2,-5.845520645E-3,-1.219065860E-2
4.867806844E0,-4.043567926E-2,-4.396630917E-3,-1.312327664E-2
4.870301839E0,-4.083537310E-2,-5.046132952E-3,-1.179096475E-2
4.872797648E0,-3.975287080E-2,-2.781202085E-3,-1.140792482E-2
4.875295004E0,-3.775440156E-2,-3.330780892E-3,-1.100823097E-2
4.877786580E0,-3.921994567E-2,-2.115045907E-3,-1.047530584E-2
4.880280924E0,-3.760451823E-2,-2.914433368E-3,-7.027947810E-3
4.882776327E0,-3.775440156E-2,-2.797855996E-3,-8.360260166E-3
4.885272054E0,-3.518969938E-2,-1.615428715E-3,-8.227028884E-3
4.887766968E0,-3.412384912E-2,-1.881891279E-3,-7.694104221E-3
4.890261393E0,-3.387404233E-2,-3.613897366E-3,-6.228560582E-3
4.892756470E0,-3.372415900E-2,-2.281585010E-3,-5.312595516E-3
4.895251994E0,-3.145922720E-2,-3.497319994E-3,-3.713820828E-3
4.897747355E0,-3.200880438E-2,-4.679747391E-3,-2.781202085E-3
4.900220297E0,-3.027679957E-2,-5.762251094E-3,-1.049195998E-3
4.902763183E0,-2.881125547E-2,-5.379211158E-3,3.996937303E-4
4.905206177E0,-2.667955495E-2,-7.527565118E-3,1.199081191E-3
4.907726604E0,-2.614662983E-2,-7.127871271E-3,8.160413126E-4
4.910221557E0,-2.416481636E-2,-9.809150361E-3,3.464012174E-3
4.912717367E0,-2.363189124E-2,-9.409456514E-3,3.730474738E-3
4.915212240E0,-2.229957841E-2,-1.140792482E-2,4.663093481E-3
4.917683471E0,-2.296573482E-2,-1.167438738E-2,5.862174556E-3
4.920202555E0,-2.005130053E-2,-1.357293222E-2,4.529862199E-3
4.922718099E0,-1.845252700E-2,-1.410585735E-2,5.862174556E-3
4.925190959E0,-1.805283315E-2,-1.343970094E-2,5.862174556E-3
4.927687378E0,-1.670386642E-2,-1.305666100E-2,5.196018144E-3
4.930156494E0,-1.457216684E-2,-1.307331491E-2,5.995405838E-3
4.932651612E0,-1.388935652E-2,-1.174100302E-2,5.595711991E-3
4.935172038E0,-1.055857539E-2,-1.177431084E-2,4.796324763E-3
4.937667643E0,-9.892419912E-3,-1.219065860E-2,3.863706021E-3
4.940163208E0,-1.000899635E-2,-1.017553546E-2,4.529862199E-3
4.942657959E0,-6.928024348E-3,-9.675919078E-3,2.797855996E-3
